Folder: automated_analyisis/AutoAnalysis Examples/EC (part 2)

File: C000A-5ppb-A_C01.mpt
EC-Lab ASCII FILE
Nb header lines : 59

Cyclic Voltammetry

Run on channel : 1 (SN 22398)
User :
CE vs. WE compliance from -10 V to 10 V
Electrode connection : standard
Ewe ctrl range : min = -1.00 V, max = 1.00 V
Safety Limits :
	Ewe min = -2.00 V
	Ewe max = 2.00 V
	|I| = 50.000 mA
	for t > 10 ms
Acquisition started on : 11/21/2018 10:39:16
Technique started on : 11/21/2018 10:39:16
Saved on :
	File : C000A-5ppb-A_C01.mpr
	Directory : \\ECCOMPUTER\Users\Lab User\Google Drive\Electrochemical Data\EC-Lab\Data\FREDsense\Tim\2018.11.21 - EC comparison to High Throughput\
	Host : 172.16.1.30
Device : SP-50 (SN 0301030103010301)
Address : USB
EC-Lab for windows v11.02 (software)
Internet server v11.02 (firmware)
Command interpretor v11.02 (firmware)
Electrode material : Au/Pd
Initial state :
Electrolyte : NaCl (0.2M)
Comments : Fe(CN)63-/Fe(CN)64- 5.10-3 M
Reference electrode : SCE Saturated Calomel Electrode (0.241 V)
Electrode surface area : 0.001 cm²
Characteristic mass : 0.001 g
Equivalent Weight : 0.000 g/eq.
Density : 0.000 g/cm3
Cycle Definition : Charge/Discharge alternance
Ei (V)              -0.100
vs.                 Ref
dE/dt               50.000
dE/dt unit          mV/s
E1 (V)              0.300
vs.                 Ref
Step percent        50
N                   10
E range min (V)     -1.000
E range max (V)     1.000
I Range             Auto
I Range min         Unset
I Range max         Unset
I Range init        Unset
Bandwidth           5
E2 (V)              -0.200
vs.                 Ref
nc cycles           2
Reverse Scan        1
Ef (V)              0.000
vs.                 Eoc

mode	ox/red	error	control changes	counter inc.	time/s	control/V	Ewe/V	<I>/mA	cycle number	(Q-Qo)/C	P/W
2	1	0	1	0	0.000000000000000E+000	-0.0985036	-0.0985623	-7.30541e-05	1	0.0000000E+000	7.20038e-09
2	1	0	1	0	0.4865	-0.0741777	-0.0743608	4.83799e-05	1	1.96992e-08	-3.59757e-09
2	1	0	1	0	0.9465	-0.0511769	-0.0513423	5.69858e-05	1	4.54335e-08	-2.92578e-09
2	1	0	1	0	1.4065	-0.0281761	-0.0283651	6.88754e-05	1	7.5553e-08	-1.95366e-09
2	1	0	1	0	1.8665	-0.00517522	-0.00540706	9.01958e-05	1	1.12626e-07	-4.87694e-10
2	1	0	1	0	2.3265	0.0178256	0.0176687	0.000161198	1	1.68959e-07	2.84815e-09
2	1	0	1	0	2.7865	0.0408264	0.0406363	0.00036507	1	2.84434e-07	1.48351e-08
2	1	0	1	0	3.2465	0.0638273	0.0637183	0.000689525	1	5.27588e-07	4.39354e-08
2	1	0	1	0	3.7065	0.0868281	0.0866435	0.000867903	1	8.98026e-07	7.51982e-08
2	1	0	1	0	4.1665	0.109829	0.109681	0.000825691	1	1.29389e-06	9.05627e-08
2	1	0	1	0	4.6265	0.13283	0.132696	0.000729677	1	1.65258e-06	9.68255e-08
2	1	0	1	0	5.0865	0.155831	0.155647	0.000657818	1	1.97171e-06	1.02387e-07
2	1	0	0	0	5.5467	0.178831	0.178731	0.000607831	1	2.26337e-06	1.08638e-07
2	1	0	0	0	6.0067	0.201832	0.201675	0.000578276	1	2.53727e-06	1.16624e-07
2	1	0	0	0	6.4667	0.224833	0.224709	0.000562973	1	2.80085e-06	1.26505e-07
2	1	0	0	0	6.9267	0.247834	0.24762	0.000556014	1	3.05967e-06	1.3768e-07
2	1	0	0	0	7.3867	0.270835	0.270734	0.000556369	1	3.3162e-06	1.50628e-07
2	1	0	0	0	7.8467	0.293836	0.293717	0.000557148	1	3.57364e-06	1.63644e-07
2	0	0	1	0	8.2861	0.284185	0.284025	0.000358912	1	3.76955e-06	1.0194e-07
2	0	0	1	0	8.7461	0.261184	0.261025	0.000286916	1	3.9146e-06	7.48922e-08
2	0	0	1	0	9.2061	0.238184	0.238013	0.000249293	1	4.03644e-06	5.9335e-08
2	0	0	1	0	9.6661	0.215183	0.214999	0.000222635	1	4.14398e-06	4.78662e-08
2	0	0	1	0	10.1261	0.192182	0.191985	0.00020147	1	4.24057e-06	3.86793e-08
2	0	0	0	0	10.5863	0.169181	0.168982	0.000182004	1	4.32753e-06	3.07554e-08
2	0	0	0	0	11.0463	0.14618	0.145957	0.000156826	1	4.40451e-06	2.28898e-08
2	0	0	0	0	11.5063	0.123179	0.123007	0.000125165	1	4.46914e-06	1.53962e-08
2	0	0	0	0	11.9663	0.100179	0.100012	6.51253e-05	1	4.51344e-06	6.51332e-09
2	0	0	0	0	12.4263	0.0771777	0.0770053	-7.68576e-05	1	4.5141e-06	-5.91844e-09
2	0	0	0	0	12.8863	0.0541769	0.0540187	-0.000359903	1	4.41768e-06	-1.94415e-08
2	0	0	0	0	13.3463	0.0311761	0.0310055	-0.00063063	1	4.18145e-06	-1.9553e-08
2	0	0	0	0	13.8063	0.00817526	0.00790644	-0.000626668	1	3.88184e-06	-4.95471e-09
2	0	0	0	0	14.2663	-0.0148256	-0.0150368	-0.000503054	1	3.62073e-06	7.56431e-09
2	0	0	0	0	14.7263	-0.0378264	-0.0379948	-0.000407424	1	3.41246e-06	1.548e-08
2	0	0	0	0	15.1863	-0.0608272	-0.0610451	-0.000344447	1	3.2399e-06	2.10268e-08
2	0	0	0	0	15.6463	-0.0838281	-0.0840138	-0.000306037	1	3.08991e-06	2.57113e-08
2	0	0	1	0	16.1065	-0.106829	-0.106971	-0.000279039	1	2.95483e-06	2.98491e-08
2	0	0	1	0	16.5665	-0.12983	-0.129998	-0.000259867	1	2.83029e-06	3.37821e-08
2	0	0	1	0	17.0265	-0.152831	-0.153015	-0.000248207	1	2.71329e-06	3.79794e-08
2	0	0	1	0	17.4865	-0.175831	-0.176109	-0.000237942	1	2.6013e-06	4.19038e-08
2	0	0	1	0	17.9465	-0.198832	-0.199038	-0.00023466	1	2.49206e-06	4.67064e-08
2	1	0	0	1	18.3959	-0.178732	-0.178927	-7.45065e-05	1	2.446e-06	1.33312e-08
2	1	0	0	1	18.8559	-0.155731	-0.155909	-4.85917e-05	1	2.41989e-06	7.5759e-09
2	1	0	0	1	19.3159	-0.13273	-0.132886	-3.02742e-05	1	2.40351e-06	4.023e-09
2	1	0	0	1	19.7759	-0.109729	-0.109878	-1.73883e-05	1	2.39399e-06	1.91059e-09
2	1	0	1	1	20.2361	-0.0867282	-0.0869281	-6.38721e-06	2	2.38981e-06	5.55228e-10
2	1	0	1	1	20.6961	-0.0637274	-0.0639319	1.96254e-06	2	2.39007e-06	-1.25469e-10
2	1	0	1	1	21.1561	-0.0407265	-0.0409324	1.1252e-05	2	2.3945e-06	-4.60573e-10
2	1	0	1	1	21.6161	-0.0177257	-0.0178875	2.75364e-05	2	2.40427e-06	-4.92557e-10
2	1	0	1	1	22.0761	0.00527516	0.00517025	6.43145e-05	2	2.42529e-06	3.32523e-10
2	1	0	1	1	22.5361	0.028276	0.0281697	0.000178726	2	2.47851e-06	5.03464e-09
2	1	0	1	1	22.9961	0.0512768	0.0511309	0.000433237	2	2.61548e-06	2.21518e-08
2	1	0	1	1	23.4561	0.0742776	0.0741663	0.000714237	2	2.88522e-06	5.29723e-08
2	1	0	1	1	23.9161	0.0972785	0.0971541	0.000787442	2	3.24049e-06	7.65032e-08
2	1	0	1	1	24.3761	0.120279	0.120117	0.000707673	2	3.58758e-06	8.50038e-08
2	1	0	1	1	24.8361	0.14328	0.143077	0.00061464	2	3.89252e-06	8.79406e-08
2	1	0	1	1	25.2961	0.166281	0.166105	0.000549256	2	4.16088e-06	9.12339e-08
2	1	0	0	1	25.7563	0.189282	0.189106	0.000503308	2	4.40384e-06	9.51786e-08
2	1	0	0	1	26.2163	0.212283	0.212152	0.000475217	2	4.62977e-06	1.00818e-07
2	1	0	0	1	26.6763	0.235283	0.235139	0.00045641	2	4.84503e-06	1.0732e-07
2	1	0	0	1	27.1363	0.258284	0.258133	0.000449666	2	5.05448e-06	1.16074e-07
2	1	0	0	1	27.5963	0.281285	0.281182	0.000451426	2	5.26278e-06	1.26933e-07
2	0	0	0	1	28.0367	0.296686	0.296491	0.000342257	2	5.45826e-06	1.01476e-07
2	0	0	0	1	28.4967	0.273685	0.273482	0.000261206	2	5.59252e-06	7.14352e-08
2	0	0	0	1	28.9567	0.250684	0.250502	0.000224007	2	5.70251e-06	5.61143e-08
2	0	0	0	1	29.4167	0.227683	0.227533	0.000200002	2	5.79892e-06	4.55071e-08
2	0	0	0	1	29.8767	0.204682	0.204495	0.000180427	2	5.88549e-06	3.68964e-08
2	0	0	0	1	30.3367	0.181682	0.181558	0.000163854	2	5.96363e-06	2.97491e-08
2	0	0	1	1	30.7969	0.158681	0.158538	0.000144797	2	6.03359e-06	2.29559e-08
2	0	0	1	1	31.2569	0.13568	0.135474	0.000120624	2	6.094e-06	1.63414e-08
2	0	0	1	1	31.7169	0.112679	0.112581	8.25067e-05	2	6.14078e-06	9.28868e-09
2	0	0	1	1	32.1769	0.0896782	0.0894872	-3.56737e-07	2	6.16132e-06	-3.19234e-11
2	0	0	1	1	32.6369	0.0666774	0.0665037	-0.000193456	2	6.12102e-06	-1.28655e-08
2	0	0	1	1	33.0969	0.0436765	0.0435022	-0.000506926	2	5.96014e-06	-2.20524e-08
2	0	0	1	1	33.5569	0.0206757	0.0204784	-0.000676001	2	5.67604e-06	-1.38435e-08
[...]
2	1	0	1	0	39.0665	-0.14523	-0.14539	-5.00066e-05	2	3.94071e-06	7.27045e-09
2	1	0	1	0	39.5265	-0.12223	-0.122387	-3.62252e-05	2	3.92208e-06	4.4335e-09
2	1	0	1	0	39.9865	-0.0992286	-0.0994407	-2.34965e-05	3	3.90981e-06	2.33651e-09
2	1	0	0	0	40.4467	-0.0762278	-0.0763915	-1.36418e-05	3	3.90263e-06	1.04212e-09
2	1	0	0	0	40.9067	-0.053227	-0.0534377	-5.52698e-06	3	3.89988e-06	2.95349e-10
2	1	0	0	0	41.3667	-0.0302261	-0.0303259	7.92059e-06	3	3.90173e-06	-2.40199e-10
2	1	0	0	0	41.8267	-0.00722529	-0.00742615	2.95395e-05	3	3.91082e-06	-2.19365e-10
2	1	0	0	0	42.2867	0.0157755	0.0156199	9.52353e-05	3	3.93806e-06	1.48757e-09
2	1	0	0	0	42.7467	0.0387764	0.0386712	0.000263861	3	4.01612e-06	1.02038e-08
2	1	0	0	0	43.2067	0.0617772	0.0616696	0.000550298	3	4.20291e-06	3.39366e-08
2	1	0	0	0	43.6667	0.084778	0.0846467	0.00075512	3	4.51275e-06	6.39184e-08
2	1	0	0	0	44.1267	0.107779	0.107644	0.000742794	3	4.86446e-06	7.99573e-08
2	1	0	0	0	44.5867	0.13078	0.130614	0.000650216	3	5.18646e-06	8.49271e-08
2	1	0	0	0	45.0467	0.153781	0.153641	0.00056749	3	5.46689e-06	8.71896e-08
2	1	0	1	0	45.5069	0.176781	0.176688	0.000508805	3	5.71551e-06	8.98996e-08
2	1	0	1	0	45.9669	0.199782	0.199641	0.000471834	3	5.94195e-06	9.41973e-08
2	1	0	1	0	46.4269	0.222783	0.222613	0.000445254	3	6.15363e-06	9.91194e-08
2	1	0	1	0	46.8869	0.245784	0.245653	0.000430305	3	6.35566e-06	1.05706e-07
2	1	0	1	0	47.3469	0.268785	0.268711	0.000422709	3	6.5524e-06	1.13587e-07
2	1	0	1	0	47.8069	0.291785	0.291619	0.000426087	3	6.74838e-06	1.24255e-07
2	0	0	1	0	48.2473	0.286185	0.286048	0.000271504	3	6.90136e-06	7.76632e-08
2	0	0	1	0	48.7073	0.263184	0.263001	0.000225632	3	7.01403e-06	5.93415e-08
2	0	0	1	0	49.1673	0.240184	0.240036	0.000200467	3	7.11097e-06	4.81191e-08
2	0	0	1	0	49.6273	0.217183	0.217012	0.000180529	3	7.19752e-06	3.9177e-08
2	0	0	1	0	50.0873	0.194182	0.193968	0.000163618	3	7.27568e-06	3.17366e-08
2	0	0	0	0	50.5475	0.171181	0.170958	0.000147496	3	7.34613e-06	2.52156e-08
2	0	0	0	0	51.0075	0.14818	0.147982	0.00012611	3	7.40824e-06	1.8662e-08
2	0	0	0	0	51.4675	0.125179	0.124979	0.000100008	3	7.45988e-06	1.24989e-08
2	0	0	0	0	51.9275	0.102179	0.10198	4.67265e-05	3	7.49421e-06	4.76516e-09
2	0	0	0	0	52.3875	0.0791778	0.0789676	-7.20706e-05	3	7.49134e-06	-5.69125e-09
2	0	0	0	0	52.8475	0.056177	0.0560276	-0.00032699	3	7.40387e-06	-1.83205e-08
2	0	0	0	0	53.3075	0.0331762	0.0329837	-0.000616707	3	7.18127e-06	-2.03413e-08
2	0	0	0	0	53.7675	0.0101753	0.00996732	-0.000661559	3	6.87549e-06	-6.59397e-09
2	0	0	0	0	54.2275	-0.0128255	-0.0130809	-0.000548794	3	6.59474e-06	7.1787e-09
2	0	0	0	0	54.6875	-0.0358263	-0.0360792	-0.000444791	3	6.36713e-06	1.60477e-08
2	0	0	0	0	55.1475	-0.0588272	-0.0590288	-0.000379047	3	6.17773e-06	2.23747e-08
2	0	0	0	0	55.6075	-0.081828	-0.0820504	-0.000338583	3	6.01265e-06	2.77809e-08
2	0	0	1	0	56.0677	-0.104829	-0.105075	-0.000306892	3	5.86386e-06	3.22467e-08
2	0	0	1	0	56.5277	-0.12783	-0.128015	-0.000286704	3	5.72683e-06	3.67025e-08
2	0	0	1	0	56.9877	-0.150831	-0.151055	-0.000268338	3	5.59842e-06	4.05339e-08
2	0	0	1	0	57.4477	-0.173831	-0.174094	-0.000258079	3	5.47609e-06	4.493e-08
2	0	0	1	0	57.9077	-0.196832	-0.197062	-0.000255673	3	5.35738e-06	5.03836e-08
2	1	0	0	1	58.3571	-0.180732	-0.180854	-9.39263e-05	3	5.29723e-06	1.6987e-08
2	1	0	0	1	58.8171	-0.157731	-0.157863	-6.70117e-05	3	5.26235e-06	1.05787e-08
2	1	0	0	1	59.2771	-0.13473	-0.134885	-4.924e-05	3	5.23772e-06	6.64173e-09
2	1	0	0	1	59.7371	-0.111729	-0.111923	-3.44976e-05	3	5.22038e-06	3.86107e-09
2	1	0	1	1	60.1973	-0.0887283	-0.0888565	-2.31627e-05	3	5.20888e-06	2.05815e-09
2	1	0	0	1	60.6398	-0.0666024	-0.0667051	-1.53817e-05	3	5.2023e-06	1.02604e-09

File: C000A-5ppb-B_C01.mpt
EC-Lab ASCII FILE
Nb header lines : 59

Cyclic Voltammetry

Run on channel : 1 (SN 22398)
User :
CE vs. WE compliance from -10 V to 10 V
Electrode connection : standard
Ewe ctrl range : min = -1.00 V, max = 1.00 V
Safety Limits :
	Ewe min = -2.00 V
	Ewe max = 2.00 V
	|I| = 50.000 mA
	for t > 10 ms
Acquisition started on : 11/21/2018 11:38:33
Technique started on : 11/21/2018 11:38:33
Saved on :
	File : C000A-5ppb-B_C01.mpr
	Directory : \\ECCOMPUTER\Users\Lab User\Google Drive\Electrochemical Data\EC-Lab\Data\FREDsense\Tim\2018.11.21 - EC comparison to High Throughput\
	Host : 172.16.1.30
Device : SP-50 (SN 0301030103010301)
Address : USB
EC-Lab for windows v11.02 (software)
Internet server v11.02 (firmware)
Command interpretor v11.02 (firmware)
Electrode material : Au/Pd
Initial state :
Electrolyte : NaCl (0.2M)
Comments : Fe(CN)63-/Fe(CN)64- 5.10-3 M
Reference electrode : SCE Saturated Calomel Electrode (0.241 V)
Electrode surface area : 0.001 cm²
Characteristic mass : 0.001 g
Equivalent Weight : 0.000 g/eq.
Density : 0.000 g/cm3
Cycle Definition : Charge/Discharge alternance
Ei (V)              -0.100
vs.                 Ref
dE/dt               50.000
dE/dt unit          mV/s
E1 (V)              0.300
vs.                 Ref
Step percent        50
N                   10
E range min (V)     -1.000
E range max (V)     1.000
I Range             Auto
I Range min         Unset
I Range max         Unset
I Range init        Unset
Bandwidth           5
E2 (V)              -0.200
vs.                 Ref
nc cycles           2
Reverse Scan        1
Ef (V)              0.000
vs.                 Eoc

mode	ox/red	error	control changes	counter inc.	time/s	control/V	Ewe/V	<I>/mA	cycle number	(Q-Qo)/C	P/W
2	1	0	1	0	0.000000000000000E+000	-0.0984851	-0.0987775	-0.000107391	1	0.0000000E+000	1.06078e-08
2	1	0	1	0	0.4965	-0.0736591	-0.0738922	4.4266e-05	1	1.52346e-08	-3.27091e-09
2	1	0	1	0	0.9665	-0.0501582	-0.0503161	5.37427e-05	1	3.99135e-08	-2.70412e-09
2	1	0	1	0	1.4365	-0.0266572	-0.0268396	6.49964e-05	1	6.92231e-08	-1.74448e-09
2	1	0	1	0	1.9065	-0.00315627	-0.00340235	9.03212e-05	1	1.05844e-07	-3.07304e-10
2	1	0	1	0	2.3765	0.0203447	0.0202013	0.000174614	1	1.65548e-07	3.52743e-09
2	1	0	1	0	2.8465	0.0438456	0.0436767	0.000410835	1	2.97037e-07	1.79439e-08
2	1	0	1	0	3.3165	0.0673466	0.0671574	0.000751632	1	5.74178e-07	5.04776e-08
2	1	0	1	0	3.7865	0.0908475	0.0907356	0.000876873	1	9.70515e-07	7.95636e-08
2	1	0	1	0	4.2565	0.114348	0.114163	0.000800589	1	1.36965e-06	9.13979e-08
2	1	0	1	0	4.7265	0.137849	0.137671	0.000703087	1	1.72319e-06	9.67944e-08
2	1	0	0	0	5.1967	0.16135	0.161176	0.000635141	1	2.03786e-06	1.02369e-07
2	1	0	0	0	5.6667	0.184851	0.184659	0.000592963	1	2.32697e-06	1.09496e-07
2	1	0	0	0	6.1367	0.208352	0.208154	0.000567501	1	2.60059e-06	1.18127e-07
2	1	0	0	0	6.6067	0.231853	0.231643	0.000554754	1	2.86559e-06	1.28505e-07
2	1	0	0	0	7.0767	0.255354	0.25523	0.000552825	1	3.1267e-06	1.41098e-07
2	1	0	0	0	7.5467	0.278855	0.278672	0.000554062	1	3.38761e-06	1.54402e-07
2	0	0	1	0	8.0053	0.298206	0.298007	0.000445052	1	3.64095e-06	1.32629e-07
2	0	0	1	0	8.4753	0.274705	0.274534	0.000320265	1	3.81334e-06	8.79236e-08
2	0	0	1	0	8.9453	0.251204	0.250964	0.000268982	1	3.95148e-06	6.75046e-08
2	0	0	1	0	9.4153	0.227703	0.227477	0.000236286	1	4.06891e-06	5.37495e-08
2	0	0	1	0	9.8853	0.204202	0.20404	0.000212358	1	4.17361e-06	4.33294e-08
2	0	0	1	0	10.3553	0.180701	0.180547	0.000191144	1	4.26796e-06	3.45104e-08
2	0	0	1	0	10.8253	0.1572	0.157008	0.000171093	1	4.35244e-06	2.6863e-08
2	0	0	0	0	11.2955	0.133699	0.133494	0.000145244	1	4.42617e-06	1.93891e-08
2	0	0	0	0	11.7655	0.110198	0.110016	9.86162e-05	1	4.48397e-06	1.08494e-08
2	0	0	0	0	12.2355	0.0866973	0.0864919	-2.83146e-06	1	4.50966e-06	-2.44898e-10
2	0	0	0	0	12.7055	0.0631964	0.0629402	-0.000243238	1	4.45825e-06	-1.53095e-08
2	0	0	0	0	13.1755	0.0396955	0.0394733	-0.000571542	1	4.26344e-06	-2.25607e-08
2	0	0	0	0	13.6455	0.0161945	0.015946	-0.000664151	1	3.95828e-06	-1.05905e-08
2	0	0	0	0	14.1155	-0.00730644	-0.00754637	-0.000543386	1	3.6712e-06	4.10059e-09
2	0	0	0	0	14.5855	-0.0308074	-0.0310536	-0.000429266	1	3.44358e-06	1.33302e-08
2	0	0	0	0	15.0555	-0.0543084	-0.0545799	-0.000358979	1	3.25883e-06	1.9593e-08
2	0	0	0	0	15.5255	-0.0778093	-0.0780881	-0.000313269	1	3.1006e-06	2.44626e-08
2	0	0	1	0	15.9957	-0.10131	-0.101538	-0.000283335	1	2.95939e-06	2.87693e-08
2	0	0	1	0	16.4657	-0.124811	-0.125006	-0.000264018	1	2.83e-06	3.30038e-08
2	0	0	1	0	16.9357	-0.148312	-0.148503	-0.000248256	1	2.70889e-06	3.68667e-08
2	0	0	1	0	17.4057	-0.171813	-0.172022	-0.000240023	1	2.59343e-06	4.12892e-08
2	0	0	1	0	17.8757	-0.195314	-0.195564	-0.00023543	1	2.48114e-06	4.60417e-08
2	1	0	0	1	18.3351	-0.181714	-0.181893	-7.96626e-05	1	2.42276e-06	1.44901e-08
2	1	0	0	1	18.8051	-0.158213	-0.158376	-5.03722e-05	1	2.39447e-06	7.97774e-09
2	1	0	0	1	19.2751	-0.134712	-0.134911	-3.17721e-05	1	2.37699e-06	4.2864e-09
2	1	0	0	1	19.7451	-0.111211	-0.111369	-1.786e-05	1	2.36691e-06	1.98904e-09
2	1	0	1	1	20.2153	-0.0877097	-0.0878922	-7.26688e-06	2	2.36255e-06	6.38702e-10
2	1	0	1	1	20.6853	-0.0642088	-0.0644295	1.40966e-06	2	2.36289e-06	-9.08236e-11
2	1	0	1	1	21.1553	-0.0407078	-0.0408809	1.20787e-05	2	2.3676e-06	-4.93788e-10
2	1	0	1	1	21.6253	-0.0172068	-0.0173918	2.8492e-05	2	2.3779e-06	-4.95527e-10
2	1	0	1	1	22.0953	0.00629411	0.0061515	6.93011e-05	2	2.40043e-06	4.26305e-10
2	1	0	1	1	22.5653	0.0297951	0.0296354	0.000196789	2	2.45962e-06	5.83191e-09
2	1	0	1	1	23.0353	0.053296	0.0531935	0.000479709	2	2.61508e-06	2.55174e-08
2	1	0	1	1	23.5053	0.0767969	0.0766307	0.00075846	2	2.91444e-06	5.81213e-08
2	1	0	1	1	23.9753	0.100298	0.100084	0.000790816	2	3.2891e-06	7.91478e-08
2	1	0	1	1	24.4453	0.123799	0.123623	0.000693268	2	3.64089e-06	8.57037e-08
2	1	0	1	1	24.9154	0.147299	0.147085	0.000600172	2	3.94581e-06	8.82764e-08
2	1	0	0	1	25.3855	0.170801	0.170597	0.000538475	2	4.21432e-06	9.18622e-08
2	1	0	0	1	25.8555	0.194302	0.194102	0.000498108	2	4.45839e-06	9.66837e-08
2	1	0	0	1	26.3255	0.217803	0.217643	0.000470806	2	4.68671e-06	1.02468e-07
2	1	0	0	1	26.7955	0.241304	0.241116	0.0004562	2	4.90536e-06	1.09997e-07
2	1	0	0	1	27.2655	0.264805	0.264676	0.000449399	2	5.11932e-06	1.18945e-07
2	1	0	0	1	27.7355	0.288305	0.288113	0.000456191	2	5.3335e-06	1.31435e-07
2	0	0	0	1	28.1951	0.288705	0.288501	0.000303463	2	5.51635e-06	8.75494e-08
2	0	0	0	1	28.6651	0.265205	0.26504	0.000247788	2	5.64335e-06	6.56739e-08
2	0	0	0	1	29.1351	0.241704	0.241521	0.00021664	2	5.75094e-06	5.23231e-08
2	0	0	0	1	29.6051	0.218203	0.218034	0.000196081	2	5.84642e-06	4.27523e-08
2	0	0	0	1	30.0751	0.194702	0.194501	0.000176481	2	5.93252e-06	3.43256e-08
2	0	0	0	1	30.5451	0.171201	0.17099	0.000158269	2	6.01019e-06	2.70625e-08
2	0	0	0	1	31.0151	0.1477	0.147425	0.000137498	2	6.07913e-06	2.02706e-08
2	0	0	1	1	31.4853	0.124199	0.123967	0.000109344	2	6.13698e-06	1.3555e-08
2	0	0	1	1	31.9553	0.100698	0.100428	5.28029e-05	2	6.1758e-06	5.30291e-09
2	0	0	1	1	32.4253	0.077197	0.0770144	-8.69914e-05	2	6.17135e-06	-6.69959e-09
2	0	0	1	1	32.8953	0.053696	0.05345	-0.000380501	2	6.06605e-06	-2.03378e-08
2	0	0	1	1	33.3653	0.0301951	0.0299736	-0.00066186	2	5.81216e-06	-1.98383e-08
2	0	0	1	1	33.8353	0.00669413	0.00648649	-0.000647156	2	5.4933e-06	-4.19778e-09
2	0	0	1	1	34.3053	-0.0168068	-0.0170727	-0.000516991	2	5.21816e-06	8.8264e-09
[...]
2	1	0	1	0	38.9949	-0.148712	-0.148913	-5.37302e-05	2	3.94804e-06	8.00112e-09
2	1	0	1	0	39.4649	-0.125211	-0.125417	-3.71879e-05	2	3.92811e-06	4.66401e-09
2	1	0	1	0	39.9349	-0.10171	-0.101944	-2.29737e-05	2	3.91506e-06	2.34203e-09
2	1	0	0	0	40.4051	-0.0782093	-0.0783797	-1.43289e-05	3	3.90747e-06	1.1231e-09
2	1	0	0	0	40.8751	-0.0547084	-0.0549435	-4.89284e-06	3	3.90457e-06	2.6883e-10
2	1	0	0	0	41.3451	-0.0312074	-0.0313886	5.83978e-06	3	3.90644e-06	-1.83302e-10
2	1	0	0	0	41.8151	-0.00770646	-0.00792378	2.89336e-05	3	3.91571e-06	-2.29264e-10
2	1	0	0	0	42.2851	0.0157945	0.0156979	9.6009e-05	3	3.94409e-06	1.50714e-09
2	1	0	0	0	42.7551	0.0392954	0.039098	0.000280101	3	4.02791e-06	1.09514e-08
2	1	0	0	0	43.2251	0.0627964	0.0626116	0.000588056	3	4.23186e-06	3.68191e-08
2	1	0	0	0	43.6951	0.0862973	0.0860933	0.000779784	3	4.56501e-06	6.71342e-08
2	1	0	0	0	44.1651	0.109798	0.109599	0.000743893	3	4.93089e-06	8.15303e-08
2	1	0	0	0	44.6351	0.133299	0.13305	0.000643631	3	5.25815e-06	8.56354e-08
2	1	0	1	0	45.1053	0.1568	0.156563	0.000560749	3	5.54119e-06	8.77926e-08
2	1	0	1	0	45.5753	0.180301	0.180109	0.000503882	3	5.79215e-06	9.07539e-08
2	1	0	1	0	46.0453	0.203802	0.203645	0.000470547	3	6.02163e-06	9.58246e-08
2	1	0	1	0	46.5153	0.227303	0.227117	0.000443846	3	6.23696e-06	1.00805e-07
2	1	0	1	0	46.9853	0.250804	0.250609	0.000431025	3	6.44324e-06	1.08019e-07
2	1	0	1	0	47.4553	0.274305	0.274116	0.000424963	3	6.645e-06	1.16489e-07
2	1	0	1	0	47.9253	0.297806	0.297646	0.000431645	3	6.84714e-06	1.28478e-07
2	0	0	1	0	48.3849	0.279205	0.279067	0.000257632	3	6.98598e-06	7.18966e-08
2	0	0	1	0	48.8549	0.255704	0.255514	0.000221224	3	7.09662e-06	5.65257e-08
2	0	0	1	0	49.3249	0.232203	0.231976	0.000196414	3	7.19337e-06	4.55634e-08
2	0	0	1	0	49.7949	0.208702	0.208478	0.000177533	3	7.28028e-06	3.70119e-08
2	0	0	1	0	50.2649	0.185201	0.184974	0.000162632	3	7.35888e-06	3.00828e-08
2	0	0	1	0	50.7349	0.1617	0.161526	0.000144138	3	7.42945e-06	2.32821e-08
2	0	0	0	0	51.2051	0.138199	0.137954	0.000119453	3	7.49095e-06	1.64789e-08
2	0	0	0	0	51.6751	0.114698	0.114531	8.56102e-05	3	7.53947e-06	9.80504e-09
2	0	0	0	0	52.1451	0.0911975	0.0909943	4.95128e-06	3	7.56276e-06	4.50539e-10
2	0	0	0	0	52.6151	0.0676966	0.0674892	-0.000187317	3	7.52546e-06	-1.26419e-08
2	0	0	0	0	53.0851	0.0441956	0.0439789	-0.000511188	3	7.36249e-06	-2.24815e-08
2	0	0	0	0	53.5551	0.0206947	0.0205003	-0.000691957	3	7.06646e-06	-1.41853e-08
2	0	0	0	0	54.0251	-0.00280626	-0.00306417	-0.000606349	3	6.75497e-06	1.85795e-09
2	0	0	0	0	54.4951	-0.0263072	-0.0265385	-0.000483694	3	6.49967e-06	1.28365e-08
2	0	0	0	0	54.9651	-0.0498082	-0.0500775	-0.000400825	3	6.29248e-06	2.00723e-08
2	0	0	0	0	55.4351	-0.0733091	-0.073571	-0.000351216	3	6.11549e-06	2.58393e-08
2	0	0	0	0	55.9051	-0.0968101	-0.0970559	-0.00031796	3	5.9581e-06	3.08599e-08
2	0	0	1	0	56.3753	-0.120311	-0.120576	-0.00029246	3	5.81427e-06	3.52636e-08
2	0	0	1	0	56.8453	-0.143812	-0.144039	-0.00027401	3	5.68038e-06	3.9468e-08
2	0	0	1	0	57.3153	-0.167313	-0.167551	-0.000261854	3	5.55361e-06	4.38739e-08
2	0	0	1	0	57.7853	-0.190814	-0.190972	-0.000254094	3	5.43129e-06	4.8525e-08
2	1	0	0	1	58.2447	-0.186214	-0.186445	-0.000102995	3	5.35074e-06	1.92028e-08
2	1	0	0	1	58.7147	-0.162713	-0.162913	-7.02548e-05	3	5.31175e-06	1.14454e-08
2	1	0	0	1	59.1847	-0.139212	-0.13938	-5.11e-05	3	5.28464e-06	7.12233e-09
2	1	0	0	1	59.6547	-0.115711	-0.115925	-3.66403e-05	3	5.26565e-06	4.24753e-09
2	1	0	1	1	60.1249	-0.0922099	-0.0924666	-2.50086e-05	3	5.25296e-06	2.31246e-09
2	1	0	1	1	60.5949	-0.0687089	-0.0689361	-1.30077e-05	3	5.24543e-06	8.96697e-10
2	1	0	1	1	60.9464	-0.0511332	-0.0513581	-2.12002e-05	3	5.24279e-06	1.0888e-09