Folder: automated_analyisis/AutoAnalysis Examples/EC (part 10)

File: C003B-5ppb-A_C01.mpt
EC-Lab ASCII FILE
Nb header lines : 59

Cyclic Voltammetry

Run on channel : 1 (SN 22398)
User :
CE vs. WE compliance from -10 V to 10 V
Electrode connection : standard
Ewe ctrl range : min = -1.00 V, max = 1.00 V
Safety Limits :
	Ewe min = -2.00 V
	Ewe max = 2.00 V
	|I| = 50.000 mA
	for t > 10 ms
Acquisition started on : 11/21/2018 10:17:03
Technique started on : 11/21/2018 10:17:03
Saved on :
	File : C003B-5ppb-A_C01.mpr
	Directory : \\ECCOMPUTER\Users\Lab User\Google Drive\Electrochemical Data\EC-Lab\Data\FREDsense\Tim\2018.11.21 - EC comparison to High Throughput\
	Host : 172.16.1.30
Device : SP-50 (SN 0301030103010301)
Address : USB
EC-Lab for windows v11.02 (software)
Internet server v11.02 (firmware)
Command interpretor v11.02 (firmware)
Electrode material : Au/Pd
Initial state :
Electrolyte : NaCl (0.2M)
Comments : Fe(CN)63-/Fe(CN)64- 5.10-3 M
Reference electrode : SCE Saturated Calomel Electrode (0.241 V)
Electrode surface area : 0.001 cm²
Characteristic mass : 0.001 g
Equivalent Weight : 0.000 g/eq.
Density : 0.000 g/cm3
Cycle Definition : Charge/Discharge alternance
Ei (V)              -0.100
vs.                 Ref
dE/dt               50.000
dE/dt unit          mV/s
E1 (V)              0.300
vs.                 Ref
Step percent        50
N                   10
E range min (V)     -1.000
E range max (V)     1.000
I Range             Auto
I Range min         Unset
I Range max         Unset
I Range init        Unset
Bandwidth           5
E2 (V)              -0.200
vs.                 Ref
nc cycles           2
Reverse Scan        1
Ef (V)              0.000
vs.                 Eoc

mode	ox/red	error	control changes	counter inc.	time/s	control/V	Ewe/V	<I>/mA	cycle number	(Q-Qo)/C	P/W
2	1	0	0	0	0.000000000000000E+000	-0.0985165	-0.0986027	-0.000111206	1	0.0000000E+000	1.09653e-08
2	1	0	1	0	0.4867	-0.0741908	-0.0742696	4.7668e-05	1	1.772e-08	-3.54029e-09
2	1	0	1	0	0.9467	-0.0511902	-0.0511822	5.9888e-05	1	4.43166e-08	-3.0652e-09
2	1	0	1	0	1.4067	-0.0281895	-0.0282825	7.27932e-05	1	7.58828e-08	-2.05877e-09
2	1	0	1	0	1.8667	-0.00518879	-0.00519509	9.98597e-05	1	1.15812e-07	-5.1878e-10
2	1	0	1	0	2.3267	0.0178119	0.0177492	0.000194938	1	1.80864e-07	3.45999e-09
2	1	0	1	0	2.7867	0.0408126	0.0407719	0.000481868	1	3.2828e-07	1.96467e-08
2	1	0	1	0	3.2467	0.0638132	0.0638381	0.000972484	1	6.62673e-07	6.20815e-08
2	1	0	1	0	3.7067	0.0868139	0.0867601	0.00123755	1	1.18882e-06	1.0737e-07
2	1	0	1	0	4.1667	0.109815	0.109749	0.00115248	1	1.74709e-06	1.26483e-07
2	1	0	1	0	4.6267	0.132815	0.132772	0.000991953	1	2.24088e-06	1.31703e-07
2	1	0	1	0	5.0867	0.155816	0.155765	0.000881273	1	2.67192e-06	1.37271e-07
2	1	0	1	0	5.5467	0.178817	0.178769	0.000807444	1	3.06067e-06	1.44346e-07
2	1	0	1	0	6.0067	0.201817	0.201716	0.000760928	1	3.42215e-06	1.53491e-07
2	1	0	1	0	6.4667	0.224818	0.224684	0.000733664	1	3.76639e-06	1.64843e-07
2	1	0	0	0	6.9269	0.247819	0.24773	0.000712705	1	4.10012e-06	1.76559e-07
2	1	0	0	0	7.3869	0.270819	0.270767	0.000705681	1	4.4279e-06	1.91075e-07
2	1	0	0	0	7.8469	0.29382	0.293726	0.000703863	1	4.7545e-06	2.06743e-07
2	0	0	1	0	8.2963	0.28372	0.283637	0.000480117	1	5.01461e-06	1.36179e-07
2	0	0	1	0	8.7563	0.260719	0.26063	0.000406416	1	5.21562e-06	1.05924e-07
2	0	0	0	0	9.2165	0.237718	0.237584	0.000364174	1	5.39127e-06	8.6522e-08
2	0	0	0	0	9.6765	0.214718	0.214591	0.000329712	1	5.54983e-06	7.07532e-08
2	0	0	0	0	10.1365	0.191717	0.191597	0.000304163	1	5.69498e-06	5.82766e-08
2	0	0	0	0	10.5965	0.168716	0.168676	0.000278872	1	5.82811e-06	4.70389e-08
2	0	0	0	0	11.0565	0.145716	0.145559	0.000247594	1	5.94865e-06	3.60395e-08
2	0	0	0	0	11.5165	0.122715	0.122598	0.000206471	1	6.05296e-06	2.53128e-08
2	0	0	0	0	11.9765	0.0997143	0.0995728	0.000112175	1	6.12853e-06	1.11696e-08
2	0	0	0	0	12.4365	0.0767136	0.0766242	-0.000104482	1	6.13716e-06	-8.00587e-09
2	0	0	0	0	12.8965	0.0537129	0.0536736	-0.0005449	1	5.99382e-06	-2.92467e-08
2	0	0	0	0	13.3565	0.0307123	0.0306403	-0.00091662	1	5.64304e-06	-2.80855e-08
2	0	0	0	0	13.8165	0.00771159	0.00760698	-0.000866126	1	5.21892e-06	-6.5886e-09
2	0	0	0	0	14.2765	-0.0152891	-0.0154423	-0.000676975	1	4.86389e-06	1.0454e-08
2	0	0	0	0	14.7365	-0.0382898	-0.0383865	-0.000537822	1	4.58614e-06	2.06451e-08
2	0	0	0	0	15.1965	-0.0612905	-0.0613817	-0.000453398	1	4.35834e-06	2.78304e-08
2	0	0	0	0	15.6565	-0.0842911	-0.0844479	-0.000399274	1	4.16211e-06	3.37179e-08
2	0	0	1	0	16.1167	-0.107292	-0.107395	-0.000359753	1	3.98705e-06	3.86358e-08
2	0	0	1	0	16.5767	-0.130293	-0.130381	-0.000332872	1	3.82711e-06	4.34002e-08
2	0	0	1	0	17.0367	-0.153293	-0.153381	-0.000311405	1	3.67826e-06	4.77637e-08
2	0	0	1	0	17.4967	-0.176294	-0.176412	-0.000298971	1	3.53733e-06	5.2742e-08
2	0	0	1	0	17.9567	-0.199295	-0.199388	-0.000290523	1	3.40155e-06	5.79266e-08
2	1	0	0	1	18.3961	-0.178744	-0.178762	-0.000117107	1	3.33717e-06	2.09342e-08
2	1	0	0	1	18.8561	-0.155743	-0.155804	-8.78446e-05	1	3.29212e-06	1.36865e-08
2	1	0	0	1	19.3161	-0.132743	-0.132773	-6.46712e-05	1	3.25879e-06	8.58657e-09
2	1	0	0	1	19.7761	-0.109742	-0.109835	-4.94113e-05	1	3.23392e-06	5.42708e-09
2	1	0	1	1	20.2363	-0.0867412	-0.0868268	-3.52007e-05	2	3.21573e-06	3.05636e-09
2	1	0	1	1	20.6963	-0.0637405	-0.0638263	-2.35513e-05	2	3.20322e-06	1.50319e-09
2	1	0	1	1	21.1563	-0.0407398	-0.0407633	-1.26862e-05	2	3.19612e-06	5.17131e-10
2	1	0	1	1	21.6163	-0.0177392	-0.017889	9.54744e-06	2	3.19604e-06	-1.70794e-10
2	1	0	1	1	22.0763	0.00526152	0.00525986	6.02395e-05	2	3.21098e-06	3.16851e-10
2	1	0	1	1	22.5363	0.0282622	0.0282126	0.000222319	2	3.27078e-06	6.27219e-09
2	1	0	1	1	22.9963	0.0512629	0.0512311	0.00060235	2	3.45295e-06	3.0859e-08
2	1	0	1	1	23.4563	0.0742635	0.0742337	0.00102817	2	3.83622e-06	7.63249e-08
2	1	0	1	1	23.9163	0.0972642	0.0972129	0.00112139	2	4.34665e-06	1.09013e-07
2	1	0	1	1	24.3763	0.120265	0.120214	0.000982123	2	4.83513e-06	1.18065e-07
2	1	0	1	1	24.8363	0.143266	0.143182	0.000841145	2	5.25447e-06	1.20437e-07
2	1	0	1	1	25.2963	0.166266	0.166222	0.000743983	2	5.61855e-06	1.23666e-07
2	1	0	1	1	25.7563	0.189267	0.189182	0.000676122	2	5.94536e-06	1.2791e-07
2	1	0	1	1	26.2163	0.212268	0.212166	0.000633527	2	6.24738e-06	1.34413e-07
2	1	0	1	1	26.6763	0.235268	0.235157	0.000605021	2	6.53297e-06	1.42275e-07
2	1	0	0	1	27.1365	0.258269	0.258265	0.000589551	2	6.80832e-06	1.5226e-07
2	1	0	0	1	27.5965	0.28127	0.281234	0.000584098	2	7.07876e-06	1.64268e-07
2	0	0	0	1	28.0469	0.29622	0.296122	0.000457882	2	7.33516e-06	1.35589e-07
2	0	0	0	1	28.5069	0.273219	0.273082	0.0003684	2	7.52064e-06	1.00603e-07
2	0	0	0	1	28.9669	0.250219	0.250036	0.000326033	2	7.67892e-06	8.152e-08
2	0	0	1	1	29.4271	0.227218	0.227087	0.000297694	2	7.82125e-06	6.76024e-08
2	0	0	1	1	29.8871	0.204217	0.204129	0.000273687	2	7.95153e-06	5.58674e-08
2	0	0	1	1	30.3471	0.181217	0.181072	0.000252204	2	8.07127e-06	4.56671e-08
2	0	0	1	1	30.8071	0.158216	0.158102	0.000226436	2	8.18064e-06	3.58001e-08
2	0	0	1	1	31.2671	0.135215	0.135076	0.000196381	2	8.27784e-06	2.65264e-08
2	0	0	1	1	31.7271	0.112215	0.112107	0.000144089	2	8.35662e-06	1.61533e-08
2	0	0	1	1	32.1871	0.089214	0.089122	1.54207e-05	2	8.39669e-06	1.37433e-09
2	0	0	1	1	32.6471	0.0662133	0.0661513	-0.00028979	2	8.34125e-06	-1.917e-08
2	0	0	1	1	33.1071	0.0432126	0.0430957	-0.000762913	2	8.098e-06	-3.28783e-08
2	0	0	1	1	33.5671	0.020212	0.0201186	-0.000963004	2	7.68196e-06	-1.93743e-08
[...]
2	1	0	1	0	39.5267	-0.122242	-0.12226	-7.58066e-05	2	5.32049e-06	9.26814e-09
2	1	0	1	0	39.9867	-0.0992416	-0.0993342	-6.08381e-05	3	5.29042e-06	6.04331e-09
2	1	0	0	0	40.4469	-0.0762409	-0.0762701	-4.59492e-05	3	5.26687e-06	3.50455e-09
2	1	0	0	0	40.9069	-0.0532402	-0.0532823	-3.62499e-05	3	5.24902e-06	1.93148e-09
2	1	0	0	0	41.3669	-0.0302395	-0.0303571	-2.02358e-05	3	5.2373e-06	6.143e-10
2	1	0	0	0	41.8269	-0.00723885	-0.00736304	1.02787e-05	3	5.23526e-06	-7.56827e-11
2	1	0	0	0	42.2869	0.0157618	0.0157137	9.83424e-05	3	5.2581e-06	1.54533e-09
2	1	0	0	0	42.7469	0.0387625	0.0387386	0.000347454	3	5.35397e-06	1.34599e-08
2	1	0	0	0	43.2069	0.0617632	0.0617072	0.000786608	3	5.61306e-06	4.85394e-08
2	1	0	0	0	43.6669	0.0847639	0.0846929	0.00108901	3	6.05941e-06	9.22316e-08
2	1	0	0	0	44.1269	0.107765	0.107687	0.00104815	3	6.56167e-06	1.12872e-07
2	1	0	0	0	44.5869	0.130765	0.130653	0.000893517	3	7.00969e-06	1.16741e-07
2	1	0	0	0	45.0469	0.153766	0.153705	0.000771772	3	7.3925e-06	1.18625e-07
2	1	0	0	0	45.5069	0.176767	0.176686	0.000689808	3	7.72848e-06	1.21879e-07
2	1	0	0	0	45.9669	0.199767	0.199691	0.000632474	3	8.03285e-06	1.26299e-07
2	1	0	0	0	46.4269	0.222768	0.222686	0.000593636	3	8.31576e-06	1.32195e-07
2	1	0	1	0	46.8871	0.245769	0.245695	0.00056666	3	8.58404e-06	1.39225e-07
2	1	0	1	0	47.3471	0.268769	0.268685	0.000553442	3	8.84274e-06	1.48701e-07
2	1	0	1	0	47.8071	0.29177	0.2917	0.00054975	3	9.09736e-06	1.60362e-07
2	0	0	1	0	48.2575	0.28572	0.285545	0.000380236	3	9.30544e-06	1.08575e-07
2	0	0	1	0	48.7175	0.262719	0.262605	0.000327446	3	9.4659e-06	8.59889e-08
2	0	0	1	0	49.1775	0.239718	0.239616	0.000297316	3	9.608e-06	7.12418e-08
2	0	0	0	0	49.6377	0.216718	0.216556	0.000270359	3	9.7375e-06	5.8548e-08
2	0	0	0	0	50.0977	0.193717	0.193588	0.000250176	3	9.85646e-06	4.84311e-08
2	0	0	0	0	50.5577	0.170716	0.170609	0.000228679	3	9.96557e-06	3.90147e-08
2	0	0	0	0	51.0177	0.147716	0.147604	0.000202772	3	1.00641e-05	2.99299e-08
2	0	0	0	0	51.4777	0.124715	0.124608	0.000166921	3	1.0149e-05	2.07996e-08
2	0	0	0	0	51.9377	0.101714	0.101621	9.05208e-05	3	1.02097e-05	9.19881e-09
2	0	0	0	0	52.3977	0.0787137	0.07863	-9.79695e-05	3	1.02134e-05	-7.70335e-09
2	0	0	0	0	52.8577	0.055713	0.0556009	-0.000497809	3	1.00829e-05	-2.76787e-08
2	0	0	0	0	53.3177	0.0327123	0.0326153	-0.000911859	3	9.74798e-06	-2.97406e-08
2	0	0	0	0	53.7777	0.00971165	0.00959365	-0.000926171	3	9.30933e-06	-8.88536e-09
2	0	0	0	0	54.2377	-0.013289	-0.0133453	-0.000741418	3	8.92431e-06	9.89447e-09
2	0	0	0	0	54.6977	-0.0362897	-0.0363977	-0.000594438	3	8.61865e-06	2.16362e-08
2	0	0	0	0	55.1577	-0.0592904	-0.059483	-0.000503435	3	8.36653e-06	2.99458e-08
2	0	0	0	0	55.6177	-0.0822911	-0.0823711	-0.000444743	3	8.14833e-06	3.6634e-08
2	0	0	1	0	56.0779	-0.105292	-0.105403	-0.000402759	3	7.95312e-06	4.24522e-08
2	0	0	1	0	56.5379	-0.128292	-0.128338	-0.00037153	3	7.77464e-06	4.76814e-08
2	0	0	1	0	56.9979	-0.151293	-0.151358	-0.000347427	3	7.60863e-06	5.25858e-08
2	0	0	1	0	57.4579	-0.174294	-0.174426	-0.000330053	3	7.45188e-06	5.75698e-08
2	0	0	1	0	57.9179	-0.197294	-0.197356	-0.000321076	3	7.30139e-06	6.33664e-08
2	1	0	0	1	58.3573	-0.180744	-0.180741	-0.000147416	3	7.21812e-06	2.66442e-08
2	1	0	0	1	58.8173	-0.157743	-0.157866	-0.000117758	3	7.15951e-06	1.859e-08
2	1	0	0	1	59.2773	-0.134743	-0.134768	-9.3066e-05	3	7.11322e-06	1.25423e-08
2	1	0	0	1	59.7373	-0.111742	-0.111837	-7.61387e-05	3	7.07607e-06	8.51514e-09
2	1	0	1	1	60.1975	-0.0887413	-0.0887774	-6.09777e-05	3	7.04624e-06	5.41344e-09
2	1	0	1	1	60.6575	-0.0657406	-0.0658183	-4.72987e-05	3	7.02254e-06	3.11312e-09
2	1	0	1	1	60.7178	-0.0627155	-0.0627853	-4.98476e-05	3	7.01986e-06	3.1297e-09

File: C003B-5ppb-B_C01.mpt
EC-Lab ASCII FILE
Nb header lines : 59

Cyclic Voltammetry

Run on channel : 1 (SN 22398)
User :
CE vs. WE compliance from -10 V to 10 V
Electrode connection : standard
Ewe ctrl range : min = -1.00 V, max = 1.00 V
Safety Limits :
	Ewe min = -2.00 V
	Ewe max = 2.00 V
	|I| = 50.000 mA
	for t > 10 ms
Acquisition started on : 11/21/2018 11:11:32
Technique started on : 11/21/2018 11:11:32
Saved on :
	File : C003B-5ppb-B_C01.mpr
	Directory : \\ECCOMPUTER\Users\Lab User\Google Drive\Electrochemical Data\EC-Lab\Data\FREDsense\Tim\2018.11.21 - EC comparison to High Throughput\
	Host : 172.16.1.30
Device : SP-50 (SN 0301030103010301)
Address : USB
EC-Lab for windows v11.02 (software)
Internet server v11.02 (firmware)
Command interpretor v11.02 (firmware)
Electrode material : Au/Pd
Initial state :
Electrolyte : NaCl (0.2M)
Comments : Fe(CN)63-/Fe(CN)64- 5.10-3 M
Reference electrode : SCE Saturated Calomel Electrode (0.241 V)
Electrode surface area : 0.001 cm²
Characteristic mass : 0.001 g
Equivalent Weight : 0.000 g/eq.
Density : 0.000 g/cm3
Cycle Definition : Charge/Discharge alternance
Ei (V)              -0.100
vs.                 Ref
dE/dt               50.000
dE/dt unit          mV/s
E1 (V)              0.300
vs.                 Ref
Step percent        50
N                   10
E range min (V)     -1.000
E range max (V)     1.000
I Range             Auto
I Range min         Unset
I Range max         Unset
I Range init        Unset
Bandwidth           5
E2 (V)              -0.200
vs.                 Ref
nc cycles           2
Reverse Scan        1
Ef (V)              0.000
vs.                 Eoc

mode	ox/red	error	control changes	counter inc.	time/s	control/V	Ewe/V	<I>/mA	cycle number	(Q-Qo)/C	P/W
2	1	0	1	0	0.000000000000000E+000	-0.0984851	-0.0988121	-8.57715e-05	1	0.0000000E+000	8.47526e-09
2	1	0	1	0	0.4865	-0.0741592	-0.0743635	4.82068e-05	1	1.85111e-08	-3.58482e-09
2	1	0	1	0	0.9465	-0.0511582	-0.0513683	5.93457e-05	1	4.44945e-08	-3.04849e-09
2	1	0	1	0	1.4065	-0.0281573	-0.028388	6.94283e-05	1	7.52211e-08	-1.97093e-09
2	1	0	1	0	1.8665	-0.00515635	-0.00538116	9.78284e-05	1	1.14056e-07	-5.2643e-10
2	1	0	1	0	2.3265	0.0178446	0.0175939	0.00019164	1	1.7754e-07	3.37168e-09
2	1	0	1	0	2.7865	0.0408455	0.0406028	0.000472099	1	3.21917e-07	1.91686e-08
2	1	0	1	0	3.2465	0.0638464	0.06367	0.000957906	1	6.5033e-07	6.09899e-08
2	1	0	1	0	3.7065	0.0868473	0.0866832	0.00122459	1	1.16996e-06	1.06152e-07
2	1	0	1	0	4.1665	0.109848	0.109674	0.0011513	1	1.72578e-06	1.26268e-07
2	1	0	1	0	4.6265	0.132849	0.132643	0.000997623	1	2.22042e-06	1.32328e-07
2	1	0	0	0	5.0867	0.15585	0.155727	0.000883348	1	2.65298e-06	1.37561e-07
2	1	0	0	0	5.5467	0.178851	0.178731	0.000809354	1	3.04223e-06	1.44656e-07
2	1	0	0	0	6.0067	0.201852	0.201633	0.000758589	1	3.40333e-06	1.52957e-07
2	1	0	0	0	6.4667	0.224853	0.224691	0.000729186	1	3.74626e-06	1.63841e-07
2	1	0	0	0	6.9267	0.247854	0.247636	0.00070928	1	4.07795e-06	1.75643e-07
2	1	0	0	0	7.3867	0.270855	0.270728	0.0007	1	4.40339e-06	1.89509e-07
2	1	0	0	0	7.8467	0.293856	0.293742	0.000699511	1	4.72635e-06	2.05476e-07
2	0	0	1	0	8.2953	0.283705	0.28355	0.000483899	1	4.98498e-06	1.3721e-07
2	0	0	1	0	8.7553	0.260704	0.260512	0.000410099	1	5.18746e-06	1.06836e-07
2	0	0	1	0	9.2153	0.237703	0.23743	0.000367773	1	5.36481e-06	8.73204e-08
2	0	0	1	0	9.6753	0.214702	0.214477	0.000336428	1	5.52546e-06	7.21559e-08
2	0	0	1	0	10.1353	0.191702	0.191503	0.000308597	1	5.67286e-06	5.9097e-08
2	0	0	1	0	10.5953	0.168701	0.168539	0.000284079	1	5.80805e-06	4.78784e-08
2	0	0	0	0	11.0555	0.1457	0.145502	0.000253602	1	5.93058e-06	3.68994e-08
2	0	0	0	0	11.5155	0.122699	0.122477	0.000205465	1	6.03612e-06	2.51648e-08
2	0	0	0	0	11.9755	0.0996979	0.0994605	0.000113376	1	6.11195e-06	1.12764e-08
2	0	0	0	0	12.4355	0.0766969	0.0764992	-0.000108268	1	6.11963e-06	-8.28239e-09
2	0	0	0	0	12.8955	0.053696	0.0534839	-0.000548469	1	5.97375e-06	-2.93343e-08
2	0	0	0	0	13.3555	0.0306951	0.0305015	-0.000918911	1	5.62094e-06	-2.80281e-08
2	0	0	0	0	13.8155	0.00769417	0.00751906	-0.000860749	1	5.1979e-06	-6.47202e-09
2	0	0	0	0	14.2755	-0.0153068	-0.0155461	-0.000669088	1	4.84596e-06	1.04017e-08
2	0	0	0	0	14.7355	-0.0383077	-0.0384999	-0.000532517	1	4.57143e-06	2.05019e-08
2	0	0	0	0	15.1955	-0.0613086	-0.0615767	-0.00044722	1	4.34653e-06	2.75383e-08
2	0	0	0	0	15.6555	-0.0843096	-0.0845422	-0.000393283	1	4.15288e-06	3.3249e-08
2	0	0	1	0	16.1157	-0.107311	-0.107492	-0.000355503	1	3.98027e-06	3.82136e-08
2	0	0	1	0	16.5757	-0.130311	-0.130536	-0.000327124	1	3.82272e-06	4.27014e-08
2	0	0	1	0	17.0357	-0.153312	-0.153513	-0.000307579	1	3.67613e-06	4.72173e-08
2	0	0	1	0	17.4957	-0.176313	-0.176576	-0.000294085	1	3.53735e-06	5.19284e-08
2	0	0	1	0	17.9557	-0.199314	-0.199547	-0.000285646	1	3.40368e-06	5.69996e-08
2	1	0	0	1	18.4051	-0.178213	-0.178372	-0.000117453	1	3.33825e-06	2.09503e-08
2	1	0	0	1	18.8651	-0.155212	-0.155465	-8.78852e-05	1	3.29282e-06	1.3663e-08
2	1	0	0	1	19.3251	-0.132212	-0.132388	-6.65136e-05	1	3.2588e-06	8.80558e-09
2	1	0	0	1	19.7851	-0.109211	-0.109472	-5.31702e-05	1	3.23306e-06	5.82065e-09
2	1	0	1	1	20.2453	-0.0862097	-0.0863868	-3.72567e-05	2	3.21389e-06	3.21849e-09
2	1	0	1	1	20.7053	-0.0632087	-0.0634446	-2.59412e-05	2	3.20036e-06	1.64583e-09
2	1	0	1	1	21.1653	-0.0402078	-0.0403678	-1.37601e-05	2	3.1921e-06	5.55468e-10
2	1	0	1	1	21.6253	-0.0172068	-0.0173896	5.59248e-06	2	3.1908e-06	-9.72513e-11
2	1	0	1	1	22.0853	0.00579409	0.00557691	5.72136e-05	2	3.2044e-06	3.19075e-10
2	1	0	1	1	22.5453	0.028795	0.0286579	0.000220603	2	3.26329e-06	6.32204e-09
2	1	0	1	1	23.0053	0.0517959	0.0516202	0.000595263	2	3.44358e-06	3.07276e-08
2	1	0	1	1	23.4653	0.0747969	0.0746069	0.00100969	2	3.82069e-06	7.53299e-08
2	1	0	1	1	23.9253	0.0977978	0.0975946	0.0011087	2	4.32335e-06	1.08203e-07
2	1	0	1	1	24.3853	0.120799	0.120637	0.000980078	2	4.80833e-06	1.18234e-07
2	1	0	1	1	24.8453	0.1438	0.143572	0.000841866	2	5.2274e-06	1.20869e-07
2	1	0	0	1	25.3055	0.166801	0.166644	0.000742174	2	5.59182e-06	1.23679e-07
2	1	0	0	1	25.7655	0.189801	0.189603	0.000675309	2	5.91856e-06	1.28041e-07
2	1	0	0	1	26.2255	0.212802	0.212563	0.00063114	2	6.22127e-06	1.34157e-07
2	1	0	0	1	26.6855	0.235803	0.235649	0.000600225	2	6.50525e-06	1.41443e-07
2	1	0	0	1	27.1455	0.258804	0.258603	0.000582485	2	6.77852e-06	1.50632e-07
2	1	0	0	1	27.6055	0.281805	0.281669	0.000579726	2	7.04675e-06	1.63291e-07
2	0	0	0	1	28.0551	0.295706	0.295528	0.000450314	2	7.29805e-06	1.33081e-07
2	0	0	0	1	28.5151	0.272705	0.272487	0.000368603	2	7.48296e-06	1.00439e-07
2	0	0	0	1	28.9751	0.249704	0.249507	0.000336098	2	7.64325e-06	8.38588e-08
2	0	0	0	1	29.4351	0.226703	0.22647	0.000300994	2	7.78719e-06	6.8166e-08
2	0	0	0	1	29.8951	0.203702	0.20347	0.000275489	2	7.91873e-06	5.60538e-08
2	0	0	0	1	30.3551	0.180701	0.180517	0.000253298	2	8.03989e-06	4.57244e-08
2	0	0	0	1	30.8151	0.1577	0.157496	0.000228609	2	8.15027e-06	3.60049e-08
2	0	0	1	1	31.2753	0.134699	0.134459	0.00019884	2	8.24817e-06	2.67359e-08
2	0	0	1	1	31.7353	0.111698	0.11152	0.000140905	2	8.32655e-06	1.57138e-08
2	0	0	1	1	32.1953	0.0886974	0.0884861	8.87798e-06	2	8.3646e-06	7.85577e-10
2	0	0	1	1	32.6553	0.0656965	0.0654707	-0.000303052	2	8.30489e-06	-1.9841e-08
2	0	0	1	1	33.1153	0.0426956	0.0424724	-0.000771307	2	8.0565e-06	-3.27593e-08
2	0	0	1	1	33.5753	0.0196946	0.0194826	-0.000957365	2	7.63979e-06	-1.86519e-08
[...]
2	1	0	1	0	39.5449	-0.121211	-0.121408	-7.86045e-05	2	5.30484e-06	9.54322e-09
2	1	0	0	0	40.0051	-0.0982101	-0.0984712	-6.40388e-05	3	5.27381e-06	6.30598e-09
2	1	0	0	0	40.4651	-0.0752092	-0.0754315	-5.03793e-05	3	5.24916e-06	3.80019e-09
2	1	0	0	0	40.9251	-0.0522083	-0.0524395	-3.53278e-05	3	5.23008e-06	1.85257e-09
2	1	0	0	0	41.3851	-0.0292073	-0.0294348	-2.37844e-05	3	5.21707e-06	7.0009e-10
2	1	0	0	0	41.8451	-0.0062064	-0.00642688	7.0374e-06	3	5.21394e-06	-4.52285e-11
2	1	0	0	0	42.3051	0.0167945	0.0166001	0.000101216	3	5.23647e-06	1.6802e-09
2	1	0	0	0	42.7651	0.0397955	0.0396493	0.000349526	3	5.33317e-06	1.38584e-08
2	1	0	0	0	43.2251	0.0627964	0.0626254	0.000777799	3	5.59119e-06	4.871e-08
2	1	0	0	0	43.6851	0.0857973	0.0856195	0.00106777	3	6.03007e-06	9.14222e-08
2	1	0	0	0	44.1451	0.108798	0.10858	0.00103375	3	6.52403e-06	1.12245e-07
2	1	0	0	0	44.6051	0.131799	0.131667	0.000890953	3	6.96818e-06	1.17309e-07
2	1	0	1	0	45.0653	0.1548	0.154662	0.000768299	3	7.34974e-06	1.18827e-07
2	1	0	1	0	45.5253	0.177801	0.177602	0.000686452	3	7.68461e-06	1.21915e-07
2	1	0	1	0	45.9853	0.200802	0.200681	0.000627482	3	7.98752e-06	1.25924e-07
2	1	0	1	0	46.4453	0.223803	0.223657	0.000590663	3	8.26854e-06	1.32106e-07
2	1	0	1	0	46.9053	0.246804	0.246596	0.000562998	3	8.53446e-06	1.38833e-07
2	1	0	1	0	47.3653	0.269805	0.269661	0.000548053	3	8.79075e-06	1.47789e-07
2	1	0	1	0	47.8253	0.292806	0.292618	0.000545382	3	9.04267e-06	1.59589e-07
2	0	0	1	0	48.2749	0.284705	0.284509	0.00037532	3	9.24542e-06	1.06782e-07
2	0	0	1	0	48.7349	0.261704	0.261506	0.000327396	3	9.40553e-06	8.5616e-08
2	0	0	1	0	49.1949	0.238703	0.238485	0.000297979	3	9.54809e-06	7.10635e-08
2	0	0	1	0	49.6549	0.215703	0.215505	0.000272262	3	9.67826e-06	5.86737e-08
2	0	0	1	0	50.1149	0.192702	0.192517	0.000249931	3	9.798e-06	4.8116e-08
2	0	0	1	0	50.5749	0.169701	0.169486	0.000229771	3	9.90773e-06	3.8943e-08
2	0	0	0	0	51.0351	0.1467	0.146459	0.000204017	3	1.00066e-05	2.98801e-08
2	0	0	0	0	51.4951	0.123699	0.123457	0.000164446	3	1.00908e-05	2.03021e-08
2	0	0	0	0	51.9551	0.100698	0.10047	8.35877e-05	3	1.01493e-05	8.39803e-09
2	0	0	0	0	52.4151	0.077697	0.0774735	-0.000115135	3	1.01481e-05	-8.91994e-09
2	0	0	0	0	52.8751	0.0546961	0.0544826	-0.00051734	3	1.00094e-05	-2.8186e-08
2	0	0	0	0	53.3351	0.0316951	0.0314938	-0.000914338	3	9.6682e-06	-2.87959e-08
2	0	0	0	0	53.7951	0.00869421	0.00847105	-0.000912287	3	9.23234e-06	-7.72803e-09
2	0	0	0	0	54.2551	-0.0143067	-0.0145697	-0.000727215	3	8.85375e-06	1.05953e-08
2	0	0	0	0	54.7151	-0.0373077	-0.0375871	-0.000587003	3	8.55337e-06	2.20638e-08
2	0	0	0	0	55.1751	-0.0603086	-0.0605537	-0.000496371	3	8.30526e-06	3.00571e-08
2	0	0	0	0	55.6351	-0.0833095	-0.083604	-0.000437731	3	8.09022e-06	3.6596e-08
2	0	0	1	0	56.0953	-0.10631	-0.106555	-0.000396895	3	7.89769e-06	4.2291e-08
2	0	0	1	0	56.5553	-0.129311	-0.129541	-0.000365224	3	7.72149e-06	4.73115e-08
2	0	0	1	0	57.0153	-0.152312	-0.152473	-0.000343873	3	7.5576e-06	5.24313e-08
2	0	0	1	0	57.4753	-0.175313	-0.175559	-0.000326509	3	7.40285e-06	5.73217e-08
2	0	0	1	0	57.9353	-0.198314	-0.198544	-0.000317725	3	7.25427e-06	6.30823e-08
2	1	0	0	1	58.3847	-0.179213	-0.179473	-0.000147688	3	7.17296e-06	2.65061e-08
2	1	0	0	1	58.8447	-0.156213	-0.156443	-0.000117545	3	7.11422e-06	1.83891e-08
2	1	0	0	1	59.3047	-0.133212	-0.133399	-9.56609e-05	3	7.06731e-06	1.27611e-08
2	1	0	0	1	59.7647	-0.110211	-0.110411	-7.8306e-05	3	7.02928e-06	8.64587e-09
2	1	0	1	1	60.2249	-0.0872097	-0.0874098	-6.24915e-05	3	6.99837e-06	5.46237e-09
2	1	0	1	1	60.6849	-0.0642088	-0.0643956	-5.08386e-05	3	6.97348e-06	3.27378e-09
2	1	0	0	1	60.6966	-0.0635837	-0.063857	-4.97204e-05	3	6.97293e-06	3.175e-09