Folder: automated_analyisis/AutoAnalysis Examples/EC (part 8)

File: C003A-20ppb-A_C01.mpt
EC-Lab ASCII FILE
Nb header lines : 59

Cyclic Voltammetry

Run on channel : 1 (SN 22398)
User :
CE vs. WE compliance from -10 V to 10 V
Electrode connection : standard
Ewe ctrl range : min = -1.00 V, max = 1.00 V
Safety Limits :
	Ewe min = -2.00 V
	Ewe max = 2.00 V
	|I| = 50.000 mA
	for t > 10 ms
Acquisition started on : 11/21/2018 10:11:07
Technique started on : 11/21/2018 10:11:07
Saved on :
	File : C003A-20ppb-A_C01.mpr
	Directory : \\ECCOMPUTER\Users\Lab User\Google Drive\Electrochemical Data\EC-Lab\Data\FREDsense\Tim\2018.11.21 - EC comparison to High Throughput\
	Host : 172.16.1.30
Device : SP-50 (SN 0301030103010301)
Address : USB
EC-Lab for windows v11.02 (software)
Internet server v11.02 (firmware)
Command interpretor v11.02 (firmware)
Electrode material : Au/Pd
Initial state :
Electrolyte : NaCl (0.2M)
Comments : Fe(CN)63-/Fe(CN)64- 5.10-3 M
Reference electrode : SCE Saturated Calomel Electrode (0.241 V)
Electrode surface area : 0.001 cm²
Characteristic mass : 0.001 g
Equivalent Weight : 0.000 g/eq.
Density : 0.000 g/cm3
Cycle Definition : Charge/Discharge alternance
Ei (V)              -0.100
vs.                 Ref
dE/dt               50.000
dE/dt unit          mV/s
E1 (V)              0.300
vs.                 Ref
Step percent        50
N                   10
E range min (V)     -1.000
E range max (V)     1.000
I Range             Auto
I Range min         Unset
I Range max         Unset
I Range init        Unset
Bandwidth           5
E2 (V)              -0.200
vs.                 Ref
nc cycles           2
Reverse Scan        1
Ef (V)              0.000
vs.                 Eoc

mode	ox/red	error	control changes	counter inc.	time/s	control/V	Ewe/V	<I>/mA	cycle number	(Q-Qo)/C	P/W
2	1	0	0	0	0.000000000000000E+000	-0.0985232	-0.0987782	-6.73312e-05	1	0.0000000E+000	6.65086e-09
2	1	0	1	0	0.4867	-0.0741977	-0.0743901	5.08352e-05	1	1.64243e-08	-3.78163e-09
2	1	0	1	0	0.9467	-0.0511972	-0.0513589	6.04338e-05	1	4.36324e-08	-3.10381e-09
2	1	0	1	0	1.4067	-0.0281967	-0.0283934	7.38036e-05	1	7.58683e-08	-2.09553e-09
2	1	0	1	0	1.8667	-0.0051962	-0.00545864	0.000103951	1	1.16977e-07	-5.6743e-10
2	1	0	1	0	2.3267	0.0178043	0.0176584	0.000204877	1	1.84963e-07	3.61781e-09
2	1	0	1	0	2.7867	0.0408048	0.04059	0.000504152	1	3.39426e-07	2.04635e-08
2	1	0	1	0	3.2467	0.0638053	0.0636933	0.000994926	1	6.84668e-07	6.33701e-08
2	1	0	1	0	3.7067	0.0868058	0.0866238	0.00125408	1	1.22024e-06	1.08633e-07
2	1	0	1	0	4.1667	0.109806	0.109642	0.00116842	1	1.78685e-06	1.28108e-07
2	1	0	1	0	4.6267	0.132807	0.132596	0.00101645	1	2.29005e-06	1.34777e-07
2	1	0	1	0	5.0867	0.155807	0.155664	0.000902164	1	2.73082e-06	1.40435e-07
2	1	0	1	0	5.5467	0.178808	0.178648	0.000826347	1	3.12878e-06	1.47625e-07
2	1	0	1	0	6.0067	0.201808	0.201639	0.000779912	1	3.4988e-06	1.5726e-07
2	1	0	1	0	6.4667	0.224809	0.224656	0.000750655	1	3.85103e-06	1.68639e-07
2	1	0	1	0	6.9267	0.247809	0.247627	0.000730039	1	4.19215e-06	1.80777e-07
2	1	0	1	0	7.3867	0.27081	0.270647	0.000723984	1	4.52723e-06	1.95944e-07
2	1	0	1	0	7.8467	0.29381	0.293661	0.000721539	1	4.86026e-06	2.11888e-07
2	0	0	1	0	8.2963	0.28371	0.283602	0.000496011	1	5.12833e-06	1.4067e-07
2	0	0	1	0	8.7563	0.26071	0.260552	0.000423686	1	5.33701e-06	1.10392e-07
2	0	0	1	0	9.2163	0.237709	0.237554	0.00038009	1	5.5201e-06	9.02917e-08
2	0	0	1	0	9.6763	0.214709	0.214551	0.000348517	1	5.68638e-06	7.47747e-08
2	0	0	1	0	10.1363	0.191708	0.191541	0.000320525	1	5.83924e-06	6.13937e-08
2	0	0	1	0	10.5963	0.168708	0.168506	0.000293466	1	5.97983e-06	4.94506e-08
2	0	0	1	0	11.0563	0.145707	0.145436	0.000266074	1	6.10759e-06	3.86968e-08
2	0	0	1	0	11.5163	0.122707	0.122537	0.000219028	1	6.21883e-06	2.68389e-08
2	0	0	1	0	11.9763	0.0997061	0.0994831	0.000131247	1	6.30122e-06	1.30568e-08
2	0	0	1	0	12.4363	0.0767056	0.0765186	-8.43524e-05	1	6.31812e-06	-6.45453e-09
2	0	0	1	0	12.8963	0.0537051	0.0535299	-0.0005158	1	6.18672e-06	-2.76107e-08
2	0	0	1	0	13.3563	0.0307046	0.030522	-0.000909918	1	5.84527e-06	-2.77725e-08
2	0	0	1	0	13.8163	0.00770408	0.00748548	-0.000892422	1	5.41546e-06	-6.6802e-09
2	0	0	1	0	14.2763	-0.0152964	-0.0155532	-0.000699874	1	5.04856e-06	1.08853e-08
2	0	0	1	0	14.7363	-0.0382969	-0.0384964	-0.000556164	1	4.76142e-06	2.14103e-08
2	0	0	1	0	15.1963	-0.0612974	-0.0615636	-0.000465641	1	4.52722e-06	2.86666e-08
2	0	0	1	0	15.6563	-0.0842979	-0.0845471	-0.000406817	1	4.32657e-06	3.43952e-08
2	0	0	0	0	16.1165	-0.107298	-0.107566	-0.000366787	1	4.1484e-06	3.94536e-08
2	0	0	0	0	16.5765	-0.130299	-0.13053	-0.000336133	1	3.98631e-06	4.38754e-08
2	0	0	0	0	17.0365	-0.153299	-0.153462	-0.000315533	1	3.83593e-06	4.84222e-08
2	0	0	0	0	17.4965	-0.1763	-0.176465	-0.000300515	1	3.69394e-06	5.30305e-08
2	0	0	0	0	17.9565	-0.1993	-0.199505	-0.000290629	1	3.55748e-06	5.79819e-08
2	1	0	1	1	18.3959	-0.17875	-0.178926	-0.000121715	1	3.4919e-06	2.1778e-08
2	1	0	1	1	18.8559	-0.15575	-0.155943	-8.79364e-05	1	3.44591e-06	1.37131e-08
2	1	0	1	1	19.3159	-0.132749	-0.132969	-6.75911e-05	1	3.41185e-06	8.98754e-09
2	1	0	1	1	19.7759	-0.109749	-0.109934	-5.00543e-05	1	3.38642e-06	5.50267e-09
2	1	0	0	1	20.2361	-0.086748	-0.0869345	-3.68204e-05	2	3.36785e-06	3.20097e-09
2	1	0	0	1	20.6961	-0.0637475	-0.063968	-2.48973e-05	2	3.35511e-06	1.59263e-09
2	1	0	0	1	21.1561	-0.040747	-0.0409124	-1.00913e-05	2	3.34802e-06	4.12861e-10
2	1	0	0	1	21.6161	-0.0177465	-0.0179448	9.40437e-06	2	3.34834e-06	-1.68759e-10
2	1	0	0	1	22.0761	0.00525403	0.00510656	6.55351e-05	2	3.36475e-06	3.34659e-10
2	1	0	0	1	22.5361	0.0282545	0.0281113	0.000237201	2	3.42906e-06	6.66801e-09
2	1	0	0	1	22.9961	0.051255	0.0510757	0.000630828	2	3.62137e-06	3.22199e-08
2	1	0	0	1	23.4561	0.0742555	0.0741259	0.00106261	2	4.0193e-06	7.87673e-08
2	1	0	0	1	23.9161	0.097256	0.0971031	0.00115527	2	4.54551e-06	1.1218e-07
2	1	0	0	1	24.3761	0.120257	0.120076	0.00101963	2	5.05048e-06	1.22433e-07
2	1	0	0	1	24.8361	0.143257	0.143103	0.000874691	2	5.48604e-06	1.25171e-07
2	1	0	0	1	25.2961	0.166257	0.166121	0.00077301	2	5.8651e-06	1.28414e-07
2	1	0	0	1	25.7561	0.189258	0.189088	0.00070461	2	6.20552e-06	1.33233e-07
2	1	0	0	1	26.2161	0.212259	0.212101	0.000658694	2	6.51996e-06	1.3971e-07
2	1	0	0	1	26.6761	0.235259	0.235088	0.000628613	2	6.81706e-06	1.47779e-07
2	1	0	0	1	27.1361	0.25826	0.258127	0.000610898	2	7.10314e-06	1.57689e-07
2	1	0	0	1	27.5961	0.28126	0.281096	0.000605287	2	7.38381e-06	1.70144e-07
2	0	0	1	1	28.0467	0.29621	0.296034	0.000480968	2	7.65017e-06	1.42383e-07
2	0	0	1	1	28.5067	0.27321	0.272984	0.000394127	2	7.84645e-06	1.0759e-07
2	0	0	1	1	28.9667	0.250209	0.249984	0.000348558	2	8.01527e-06	8.71337e-08
2	0	0	1	1	29.4267	0.227209	0.227011	0.000319928	2	8.16787e-06	7.26271e-08
2	0	0	1	1	29.8867	0.204208	0.204046	0.000295863	2	8.30822e-06	6.03697e-08
2	0	0	1	1	30.3467	0.181208	0.181014	0.000271062	2	8.43778e-06	4.90661e-08
2	0	0	1	1	30.8067	0.158207	0.158004	0.000247829	2	8.55657e-06	3.9158e-08
2	0	0	1	1	31.2667	0.135207	0.134971	0.0002159	2	8.66268e-06	2.91401e-08
2	0	0	1	1	31.7267	0.112206	0.111976	0.000161687	2	8.74966e-06	1.8105e-08
2	0	0	1	1	32.1867	0.0892059	0.0889878	3.45225e-05	2	8.79752e-06	3.07208e-09
2	0	0	1	1	32.6467	0.0662053	0.0660033	-0.000270304	2	8.75096e-06	-1.7841e-08
2	0	0	1	1	33.1067	0.0432048	0.0429806	-0.000746943	2	8.5172e-06	-3.2104e-08
2	0	0	1	1	33.5667	0.0202043	0.0200172	-0.000983775	2	8.10016e-06	-1.96924e-08
[...]
2	1	0	1	0	39.0663	-0.145249	-0.145435	-9.94939e-05	2	5.71308e-06	1.44699e-08
2	1	0	1	0	39.5263	-0.122249	-0.122444	-7.71897e-05	2	5.67402e-06	9.45145e-09
2	1	0	1	0	39.9863	-0.0992483	-0.0994546	-6.152e-05	3	5.64316e-06	6.11844e-09
2	1	0	0	0	40.4465	-0.0762478	-0.0764902	-4.94802e-05	3	5.619e-06	3.78475e-09
2	1	0	0	0	40.9065	-0.0532473	-0.0534865	-3.51194e-05	3	5.60077e-06	1.87842e-09
2	1	0	0	0	41.3665	-0.0302468	-0.0305147	-1.98065e-05	3	5.58899e-06	6.0439e-10
2	1	0	0	0	41.8265	-0.00724625	-0.00739867	1.37903e-05	3	5.58756e-06	-1.0203e-10
2	1	0	0	0	42.2865	0.0157543	0.0156081	0.000107602	3	5.61284e-06	1.67947e-09
2	1	0	0	0	42.7465	0.0387548	0.0386383	0.000369202	3	5.71549e-06	1.42653e-08
2	1	0	0	0	43.2065	0.0617553	0.0616112	0.00082324	3	5.98774e-06	5.07208e-08
2	1	0	0	0	43.6665	0.0847557	0.0846318	0.00113086	3	6.45195e-06	9.57066e-08
2	1	0	0	0	44.1265	0.107756	0.10756	0.00109185	3	6.97448e-06	1.1744e-07
2	1	0	0	0	44.5865	0.130757	0.130578	0.000937548	3	7.44305e-06	1.22423e-07
2	1	0	0	0	45.0465	0.153757	0.153605	0.000810719	3	7.84488e-06	1.2453e-07
2	1	0	0	0	45.5065	0.176758	0.176558	0.000724546	3	8.1979e-06	1.27925e-07
2	1	0	0	0	45.9665	0.199758	0.199651	0.000664287	3	8.51757e-06	1.32626e-07
2	1	0	0	0	46.4265	0.222759	0.222603	0.0006223	3	8.81445e-06	1.38526e-07
2	1	0	0	0	46.8865	0.245759	0.245631	0.000595025	3	9.09556e-06	1.46156e-07
2	1	0	0	0	47.3465	0.26876	0.268633	0.000578511	3	9.3664e-06	1.55407e-07
2	1	0	0	0	47.8065	0.29176	0.291579	0.000576324	3	9.63252e-06	1.68044e-07
2	0	0	1	0	48.2571	0.28571	0.28554	0.000404597	3	9.8522e-06	1.15529e-07
2	0	0	1	0	48.7171	0.26271	0.26252	0.000353048	3	1.00245e-05	9.2682e-08
2	0	0	1	0	49.1771	0.239709	0.23952	0.000320705	3	1.0178e-05	7.68154e-08
2	0	0	1	0	49.6371	0.216709	0.216553	0.000294762	3	1.03186e-05	6.38315e-08
2	0	0	1	0	50.0971	0.193708	0.193512	0.000272165	3	1.04484e-05	5.26671e-08
2	0	0	1	0	50.5571	0.170708	0.170555	0.000251182	3	1.05678e-05	4.28402e-08
2	0	0	1	0	51.0171	0.147707	0.14752	0.000224066	3	1.06763e-05	3.30543e-08
2	0	0	1	0	51.4771	0.124707	0.12455	0.000184599	3	1.07702e-05	2.29918e-08
2	0	0	1	0	51.9371	0.101706	0.10155	0.000106819	3	1.0839e-05	1.08475e-08
2	0	0	1	0	52.3971	0.0787056	0.0785541	-8.13266e-05	3	1.08503e-05	-6.38853e-09
2	0	0	1	0	52.8571	0.0557051	0.0555027	-0.000481175	3	1.07281e-05	-2.67065e-08
2	0	0	1	0	53.3171	0.0327046	0.0325055	-0.000917775	3	1.03968e-05	-2.98327e-08
2	0	0	1	0	53.7771	0.00970412	0.00949017	-0.000961184	3	9.94747e-06	-9.1218e-09
2	0	0	1	0	54.2371	-0.0132964	-0.013505	-0.000775064	3	9.54534e-06	1.04672e-08
2	0	0	1	0	54.6971	-0.0362969	-0.0365362	-0.000621045	3	9.22583e-06	2.26906e-08
2	0	0	1	0	55.1571	-0.0592974	-0.0595133	-0.000521989	3	8.96382e-06	3.10653e-08
2	0	0	1	0	55.6171	-0.0822979	-0.0825594	-0.000458968	3	8.73836e-06	3.78921e-08
2	0	0	0	0	56.0773	-0.105298	-0.105544	-0.000413374	3	8.5376e-06	4.36291e-08
2	0	0	0	0	56.5373	-0.128299	-0.128506	-0.000378623	3	8.35474e-06	4.86555e-08
2	0	0	0	0	56.9973	-0.151299	-0.151513	-0.000355001	3	8.18525e-06	5.37874e-08
2	0	0	0	0	57.4573	-0.1743	-0.174492	-0.000336417	3	8.02572e-06	5.87022e-08
2	0	0	0	0	57.9173	-0.1973	-0.197592	-0.000324678	3	7.87298e-06	6.41539e-08
2	1	0	1	1	58.3567	-0.18075	-0.180899	-0.000152041	3	7.78718e-06	2.7504e-08
2	1	0	1	1	58.8167	-0.15775	-0.157947	-0.000121178	3	7.72625e-06	1.91397e-08
2	1	0	1	1	59.2767	-0.134749	-0.134945	-9.61873e-05	3	7.67799e-06	1.298e-08
2	1	0	1	1	59.7367	-0.111749	-0.111997	-7.9251e-05	3	7.63912e-06	8.87588e-09
2	1	0	0	1	60.1969	-0.088748	-0.0888979	-6.25197e-05	3	7.60784e-06	5.55787e-09
2	1	0	1	1	60.5146	-0.0728227	-0.0731317	-5.97041e-05	3	7.59001e-06	4.36626e-09

File: C003A-20ppb-B_C01.mpt
EC-Lab ASCII FILE
Nb header lines : 59

Cyclic Voltammetry

Run on channel : 1 (SN 22398)
User :
CE vs. WE compliance from -10 V to 10 V
Electrode connection : standard
Ewe ctrl range : min = -1.00 V, max = 1.00 V
Safety Limits :
	Ewe min = -2.00 V
	Ewe max = 2.00 V
	|I| = 50.000 mA
	for t > 10 ms
Acquisition started on : 11/21/2018 11:05:29
Technique started on : 11/21/2018 11:05:29
Saved on :
	File : C003A-20ppb-B_C01.mpr
	Directory : \\ECCOMPUTER\Users\Lab User\Google Drive\Electrochemical Data\EC-Lab\Data\FREDsense\Tim\2018.11.21 - EC comparison to High Throughput\
	Host : 172.16.1.30
Device : SP-50 (SN 0301030103010301)
Address : USB
EC-Lab for windows v11.02 (software)
Internet server v11.02 (firmware)
Command interpretor v11.02 (firmware)
Electrode material : Au/Pd
Initial state :
Electrolyte : NaCl (0.2M)
Comments : Fe(CN)63-/Fe(CN)64- 5.10-3 M
Reference electrode : SCE Saturated Calomel Electrode (0.241 V)
Electrode surface area : 0.001 cm²
Characteristic mass : 0.001 g
Equivalent Weight : 0.000 g/eq.
Density : 0.000 g/cm3
Cycle Definition : Charge/Discharge alternance
Ei (V)              -0.100
vs.                 Ref
dE/dt               50.000
dE/dt unit          mV/s
E1 (V)              0.300
vs.                 Ref
Step percent        50
N                   10
E range min (V)     -1.000
E range max (V)     1.000
I Range             Auto
I Range min         Unset
I Range max         Unset
I Range init        Unset
Bandwidth           5
E2 (V)              -0.200
vs.                 Ref
nc cycles           2
Reverse Scan        1
Ef (V)              0.000
vs.                 Eoc

mode	ox/red	error	control changes	counter inc.	time/s	control/V	Ewe/V	<I>/mA	cycle number	(Q-Qo)/C	P/W
2	1	0	1	0	0.000000000000000E+000	-0.0984851	-0.0985258	-0.000118201	1	0.0000000E+000	1.16459e-08
2	1	0	1	0	0.4965	-0.0736591	-0.0739204	3.17652e-05	1	5.76221e-09	-2.34809e-09
2	1	0	1	0	0.9665	-0.0501582	-0.0503527	4.48453e-05	1	2.57906e-08	-2.25808e-09
2	1	0	1	0	1.4365	-0.0266572	-0.0269271	5.77948e-05	1	5.12712e-08	-1.55625e-09
2	1	0	1	0	1.9065	-0.00315627	-0.00334042	8.59246e-05	1	8.42758e-08	-2.87024e-10
2	1	0	1	0	2.3765	0.0203447	0.0201382	0.000190736	1	1.45214e-07	3.84106e-09
2	1	0	1	0	2.8465	0.0438456	0.0436602	0.000506881	1	2.9979e-07	2.21305e-08
2	1	0	1	0	3.3165	0.0673466	0.0671865	0.00102832	1	6.613e-07	6.90889e-08
2	1	0	1	0	3.7865	0.0908475	0.0907032	0.00130743	1	1.22935e-06	1.18588e-07
2	1	0	1	0	4.2565	0.114348	0.114167	0.00121682	1	1.83195e-06	1.3892e-07
2	1	0	1	0	4.7265	0.137849	0.137633	0.00104732	1	2.36363e-06	1.44145e-07
2	1	0	0	0	5.1967	0.16135	0.161158	0.000922202	1	2.82577e-06	1.4862e-07
2	1	0	0	0	5.6667	0.184851	0.184619	0.000841142	1	3.23998e-06	1.5529e-07
2	1	0	0	0	6.1367	0.208352	0.208193	0.000786813	1	3.62295e-06	1.63809e-07
2	1	0	0	0	6.6067	0.231853	0.231731	0.000753626	1	3.98572e-06	1.74639e-07
2	1	0	0	0	7.0767	0.255354	0.255223	0.00073342	1	4.3356e-06	1.87186e-07
2	1	0	0	0	7.5467	0.278855	0.278721	0.000719405	1	4.67795e-06	2.00513e-07
2	0	0	1	0	8.0053	0.298206	0.298019	0.000607888	1	5.00515e-06	1.81162e-07
2	0	0	1	0	8.4753	0.274705	0.274526	0.000483095	1	5.25445e-06	1.32622e-07
2	0	0	1	0	8.9453	0.251204	0.250993	0.000427415	1	5.46618e-06	1.07278e-07
2	0	0	1	0	9.4153	0.227703	0.227515	0.000388888	1	5.65674e-06	8.84779e-08
2	0	0	1	0	9.8853	0.204202	0.204037	0.000358992	1	5.83167e-06	7.32478e-08
2	0	0	1	0	10.3553	0.180701	0.18049	0.000331782	1	5.99312e-06	5.98834e-08
2	0	0	1	0	10.8253	0.1572	0.157027	0.000305648	1	6.14173e-06	4.79952e-08
2	0	0	0	0	11.2955	0.133699	0.133493	0.000263265	1	6.27432e-06	3.5144e-08
2	0	0	0	0	11.7655	0.110198	0.110024	0.0001891	1	6.38189e-06	2.08054e-08
2	0	0	0	0	12.2355	0.0866973	0.0864495	2.87411e-05	1	6.43793e-06	2.48466e-09
2	0	0	0	0	12.7055	0.0631964	0.0629317	-0.000342633	1	6.37274e-06	-2.15625e-08
2	0	0	0	0	13.1755	0.0396955	0.0394765	-0.000840024	1	6.09027e-06	-3.31612e-08
2	0	0	0	0	13.6455	0.0161945	0.0159852	-0.000983547	1	5.64113e-06	-1.57222e-08
2	0	0	0	0	14.1155	-0.00730644	-0.00755486	-0.000800425	1	5.21697e-06	6.04709e-09
2	0	0	0	0	14.5855	-0.0308074	-0.0310398	-0.000619576	1	4.88534e-06	1.92315e-08
2	0	0	0	0	15.0555	-0.0543084	-0.0545417	-0.000506235	1	4.62182e-06	2.76109e-08
2	0	0	0	0	15.5255	-0.0778093	-0.0779991	-0.00043613	1	4.40077e-06	3.40178e-08
2	0	0	1	0	15.9957	-0.10131	-0.101564	-0.000386482	1	4.20736e-06	3.92525e-08
2	0	0	1	0	16.4657	-0.124811	-0.125001	-0.000353191	1	4.03334e-06	4.41491e-08
2	0	0	1	0	16.9357	-0.148312	-0.14855	-0.000325778	1	3.87333e-06	4.83945e-08
2	0	0	1	0	17.4057	-0.171813	-0.171988	-0.000306795	1	3.72352e-06	5.27649e-08
2	0	0	1	0	17.8757	-0.195314	-0.195518	-0.000296528	1	3.58072e-06	5.79767e-08
2	1	0	0	1	18.3351	-0.181714	-0.181932	-0.000142772	1	3.49244e-06	2.59748e-08
2	1	0	0	1	18.8051	-0.158213	-0.158422	-0.000109826	1	3.43495e-06	1.73988e-08
2	1	0	0	1	19.2751	-0.134712	-0.1349	-8.75655e-05	1	3.39021e-06	1.18126e-08
2	1	0	0	1	19.7451	-0.111211	-0.111356	-7.02477e-05	1	3.3547e-06	7.8225e-09
2	1	0	1	1	20.2153	-0.0877097	-0.087959	-5.70051e-05	2	3.32649e-06	5.01411e-09
2	1	0	1	1	20.6853	-0.0642088	-0.0644189	-4.30647e-05	2	3.30444e-06	2.77418e-09
2	1	0	1	1	21.1553	-0.0407078	-0.0408937	-2.98026e-05	2	3.28827e-06	1.21874e-09
2	1	0	1	1	21.6253	-0.0172068	-0.0174183	-9.66918e-06	2	3.27981e-06	1.6842e-10
2	1	0	1	1	22.0953	0.00629411	0.00613241	4.89045e-05	2	3.2881e-06	2.99903e-10
2	1	0	1	1	22.5653	0.0297951	0.0296332	0.000223228	2	3.34647e-06	6.61498e-09
2	1	0	1	1	23.0353	0.053296	0.0531797	0.000629918	2	3.53971e-06	3.34988e-08
2	1	0	1	1	23.5053	0.0767969	0.0765978	0.00108856	2	3.95266e-06	8.33817e-08
2	1	0	1	1	23.9753	0.100298	0.100194	0.00119499	2	4.50664e-06	1.19731e-07
2	1	0	1	1	24.4453	0.123799	0.123599	0.0010497	2	5.03918e-06	1.29743e-07
2	1	0	1	1	24.9154	0.147299	0.147094	0.000893288	2	5.4962e-06	1.31397e-07
2	1	0	0	1	25.3855	0.170801	0.170624	0.00078747	2	5.89166e-06	1.34362e-07
2	1	0	0	1	25.8555	0.194302	0.194135	0.000715933	2	6.24521e-06	1.38988e-07
2	1	0	0	1	26.3255	0.217803	0.21766	0.00066623	2	6.57066e-06	1.45012e-07
2	1	0	0	1	26.7955	0.241304	0.241123	0.000633638	2	6.87716e-06	1.52785e-07
2	1	0	0	1	27.2655	0.264805	0.26463	0.000614114	2	7.17147e-06	1.62513e-07
2	1	0	0	1	27.7355	0.288305	0.288205	0.000606561	2	7.45969e-06	1.74814e-07
2	0	0	0	1	28.1951	0.288705	0.288515	0.000452	2	7.71123e-06	1.30408e-07
2	0	0	0	1	28.6651	0.265205	0.264933	0.000390234	2	7.90693e-06	1.03386e-07
2	0	0	0	1	29.1351	0.241704	0.241468	0.000353754	2	8.08045e-06	8.54205e-08
2	0	0	0	1	29.6051	0.218203	0.218027	0.00032587	2	8.23905e-06	7.10484e-08
2	0	0	0	1	30.0751	0.194702	0.194479	0.000303156	2	8.38538e-06	5.89576e-08
2	0	0	0	1	30.5451	0.171201	0.171036	0.000277471	2	8.52027e-06	4.74574e-08
2	0	0	0	1	31.0151	0.1477	0.147438	0.000245208	2	8.64273e-06	3.6153e-08
2	0	0	1	1	31.4853	0.124199	0.123977	0.000203777	2	8.74865e-06	2.52636e-08
2	0	0	1	1	31.9553	0.100698	0.100472	0.000112615	2	8.82471e-06	1.13146e-08
2	0	0	1	1	32.4253	0.077197	0.0770017	-0.000110545	2	8.83163e-06	-8.51212e-09
2	0	0	1	1	32.8953	0.053696	0.0534468	-0.000558443	2	8.68096e-06	-2.9847e-08
2	0	0	1	1	33.3653	0.0301951	0.0299704	-0.0009767	2	8.30616e-06	-2.92721e-08
2	0	0	1	1	33.8353	0.00669413	0.00641441	-0.000957758	2	7.83534e-06	-6.14345e-09
2	0	0	1	1	34.3053	-0.0168068	-0.016991	-0.000753656	2	7.43207e-06	1.28054e-08
[...]
2	1	0	1	0	39.4649	-0.125211	-0.125375	-0.000100757	2	5.59248e-06	1.26324e-08
2	1	0	1	0	39.9349	-0.10171	-0.101883	-8.34091e-05	2	5.55083e-06	8.49794e-09
2	1	0	0	0	40.4051	-0.0782093	-0.0784125	-6.97708e-05	3	5.51636e-06	5.47091e-09
2	1	0	0	0	40.8751	-0.0547084	-0.0549202	-5.58905e-05	3	5.48818e-06	3.06951e-09
2	1	0	0	0	41.3451	-0.0312074	-0.0313854	-3.95389e-05	3	5.46669e-06	1.24095e-09
2	1	0	0	0	41.8151	-0.00770646	-0.00791212	-1.01726e-05	3	5.45569e-06	8.04868e-11
2	1	0	0	0	42.2851	0.0157945	0.0156428	8.28794e-05	3	5.47101e-06	1.29646e-09
2	1	0	0	0	42.7551	0.0392954	0.0390991	0.000340333	3	5.56302e-06	1.33067e-08
2	1	0	0	0	43.2251	0.0627964	0.0625978	0.000803961	3	5.82843e-06	5.03262e-08
2	1	0	0	0	43.6951	0.0862973	0.0861538	0.00114705	3	6.30177e-06	9.88227e-08
2	1	0	0	0	44.1651	0.109798	0.109624	0.00112381	3	6.84791e-06	1.23197e-07
2	1	0	0	0	44.6351	0.133299	0.133131	0.000960741	3	7.33961e-06	1.27904e-07
2	1	0	1	0	45.1053	0.1568	0.156664	0.000826488	3	7.75926e-06	1.29481e-07
2	1	0	1	0	45.5753	0.180301	0.180154	0.000735511	3	8.12569e-06	1.32505e-07
2	1	0	1	0	46.0453	0.203802	0.203605	0.000671442	3	8.45603e-06	1.36709e-07
2	1	0	1	0	46.5153	0.227303	0.22711	0.000626352	3	8.76174e-06	1.42251e-07
2	1	0	1	0	46.9853	0.250804	0.250642	0.000595878	3	9.05026e-06	1.49352e-07
2	1	0	1	0	47.4553	0.274305	0.274185	0.000579687	3	9.32757e-06	1.58941e-07
2	1	0	1	0	47.9253	0.297806	0.297662	0.000574238	3	9.59959e-06	1.70929e-07
2	0	0	1	0	48.3849	0.279205	0.279034	0.000397556	3	9.80471e-06	1.10932e-07
2	0	0	1	0	48.8549	0.255704	0.255509	0.000356111	3	9.98022e-06	9.09894e-08
2	0	0	1	0	49.3249	0.232203	0.232057	0.000326285	3	1.01389e-05	7.57166e-08
2	0	0	1	0	49.7949	0.208702	0.208519	0.000301303	3	1.02848e-05	6.28273e-08
2	0	0	1	0	50.2649	0.185201	0.185005	0.000276946	3	1.04196e-05	5.12365e-08
2	0	0	1	0	50.7349	0.1617	0.161511	0.000252153	3	1.05431e-05	4.07254e-08
2	0	0	0	0	51.2051	0.138199	0.137977	0.000218569	3	1.06535e-05	3.01574e-08
2	0	0	0	0	51.6751	0.114698	0.114498	0.000164559	3	1.07442e-05	1.88418e-08
2	0	0	0	0	52.1451	0.0911975	0.0909911	3.70025e-05	3	1.07948e-05	3.3669e-09
2	0	0	0	0	52.6151	0.0676966	0.0674383	-0.000268838	3	1.07488e-05	-1.813e-08
2	0	0	0	0	53.0851	0.0441956	0.0440414	-0.000760276	3	1.05082e-05	-3.34836e-08
2	0	0	0	0	53.5551	0.0206947	0.0204918	-0.00102076	3	1.00701e-05	-2.09171e-08
2	0	0	0	0	54.0251	-0.00280626	-0.00307901	-0.000885372	3	9.61262e-06	2.72607e-09
2	0	0	0	0	54.4951	-0.0263072	-0.0265502	-0.000695056	3	9.24234e-06	1.84538e-08
2	0	0	0	0	54.9651	-0.0498082	-0.0500775	-0.000570385	3	8.94657e-06	2.85635e-08
2	0	0	0	0	55.4351	-0.0733091	-0.073537	-0.000491346	3	8.69791e-06	3.61321e-08
2	0	0	0	0	55.9051	-0.0968101	-0.0970591	-0.000435805	3	8.48004e-06	4.22988e-08
2	0	0	1	0	56.3753	-0.120311	-0.120538	-0.000397091	3	8.28369e-06	4.78644e-08
2	0	0	1	0	56.8453	-0.143812	-0.144012	-0.000366668	3	8.10339e-06	5.28047e-08
2	0	0	1	0	57.3153	-0.167313	-0.167608	-0.00034639	3	7.93525e-06	5.80579e-08
2	0	0	1	0	57.7853	-0.190814	-0.191029	-0.000330305	3	7.77572e-06	6.30978e-08
2	1	0	0	1	58.2447	-0.186214	-0.186465	-0.000181601	3	7.65987e-06	3.38622e-08
2	1	0	0	1	58.7147	-0.162713	-0.162907	-0.000142813	3	7.58579e-06	2.32652e-08
2	1	0	0	1	59.1847	-0.139212	-0.139399	-0.000119286	3	7.52586e-06	1.66285e-08
2	1	0	0	1	59.6547	-0.115711	-0.115891	-9.91283e-05	3	7.47611e-06	1.14881e-08
2	1	0	1	1	60.1249	-0.0922099	-0.092438	-8.17947e-05	3	7.4346e-06	7.56093e-09
2	1	0	1	1	60.5949	-0.0687089	-0.0689276	-6.94582e-05	3	7.39997e-06	4.78758e-09
2	1	0	1	1	61.0649	-0.045208	-0.0453865	-5.43643e-05	3	7.3717e-06	2.4674e-09
2	1	0	1	1	61.4064	-0.0281323	-0.0285358	-3.35685e-05	3	7.35574e-06	9.57904e-10