Folder: automated_analyisis/AutoAnalysis Examples/EC (part 14)

File: C003C-5ppb-A_C01.mpt
EC-Lab ASCII FILE
Nb header lines : 59

Cyclic Voltammetry

Run on channel : 1 (SN 22398)
User :
CE vs. WE compliance from -10 V to 10 V
Electrode connection : standard
Ewe ctrl range : min = -1.00 V, max = 1.00 V
Safety Limits :
	Ewe min = -2.00 V
	Ewe max = 2.00 V
	|I| = 50.000 mA
	for t > 10 ms
Acquisition started on : 11/21/2018 10:27:57
Technique started on : 11/21/2018 10:27:57
Saved on :
	File : C003C-5ppb-A_C01.mpr
	Directory : \\ECCOMPUTER\Users\Lab User\Google Drive\Electrochemical Data\EC-Lab\Data\FREDsense\Tim\2018.11.21 - EC comparison to High Throughput\
	Host : 172.16.1.30
Device : SP-50 (SN 0301030103010301)
Address : USB
EC-Lab for windows v11.02 (software)
Internet server v11.02 (firmware)
Command interpretor v11.02 (firmware)
Electrode material : Au/Pd
Initial state :
Electrolyte : NaCl (0.2M)
Comments : Fe(CN)63-/Fe(CN)64- 5.10-3 M
Reference electrode : SCE Saturated Calomel Electrode (0.241 V)
Electrode surface area : 0.001 cm²
Characteristic mass : 0.001 g
Equivalent Weight : 0.000 g/eq.
Density : 0.000 g/cm3
Cycle Definition : Charge/Discharge alternance
Ei (V)              -0.100
vs.                 Ref
dE/dt               50.000
dE/dt unit          mV/s
E1 (V)              0.300
vs.                 Ref
Step percent        50
N                   10
E range min (V)     -1.000
E range max (V)     1.000
I Range             Auto
I Range min         Unset
I Range max         Unset
I Range init        Unset
Bandwidth           5
E2 (V)              -0.200
vs.                 Ref
nc cycles           2
Reverse Scan        1
Ef (V)              0.000
vs.                 Eoc

mode	ox/red	error	control changes	counter inc.	time/s	control/V	Ewe/V	<I>/mA	cycle number	(Q-Qo)/C	P/W
2	1	0	1	0	0.000000000000000E+000	-0.0984999	-0.0986693	-9.46738e-05	1	0.0000000E+000	9.3414e-09
2	1	0	1	0	0.4865	-0.0741741	-0.0742526	5.70706e-05	1	2.09005e-08	-4.23763e-09
2	1	0	1	0	0.9465	-0.0511733	-0.0512203	7.03503e-05	1	5.13215e-08	-3.60336e-09
2	1	0	1	0	1.4065	-0.0281725	-0.0282209	8.7827e-05	1	8.78339e-08	-2.47856e-09
2	1	0	1	0	1.8665	-0.0051717	-0.00530522	0.00013201	1	1.37065e-07	-7.00341e-10
2	1	0	1	0	2.3265	0.0178291	0.0177345	0.000302237	1	2.30147e-07	5.36002e-09
2	1	0	1	0	2.7865	0.0408299	0.0407498	0.00084138	1	4.75476e-07	3.42861e-08
2	1	0	1	0	3.2465	0.0638307	0.0637587	0.00171279	1	1.06364e-06	1.09205e-07
2	1	0	1	0	3.7065	0.0868315	0.086809	0.00209377	1	1.97183e-06	1.81758e-07
2	1	0	1	0	4.1665	0.109832	0.109769	0.0018849	1	2.89886e-06	2.06904e-07
2	1	0	1	0	4.6265	0.132833	0.132682	0.00160649	1	3.70034e-06	2.13152e-07
2	1	0	1	0	5.0865	0.155834	0.155736	0.00141328	1	4.39279e-06	2.20099e-07
2	1	0	1	0	5.5465	0.178835	0.178785	0.00128419	1	5.01252e-06	2.29594e-07
2	1	0	0	0	6.0067	0.201835	0.201753	0.00119605	1	5.58308e-06	2.41307e-07
2	1	0	0	0	6.4667	0.224836	0.224723	0.00113607	1	6.11946e-06	2.553e-07
2	1	0	0	0	6.9267	0.247837	0.247735	0.00108777	1	6.6314e-06	2.69478e-07
2	1	0	0	0	7.3867	0.270838	0.270772	0.00105555	1	7.12555e-06	2.85815e-07
2	1	0	0	0	7.8467	0.293839	0.293724	0.0010372	1	7.6079e-06	3.04651e-07
2	0	0	1	0	8.2861	0.284188	0.284021	0.000786631	1	8.00154e-06	2.23419e-07
2	0	0	1	0	8.7461	0.261188	0.261093	0.000700081	1	8.34207e-06	1.82787e-07
2	0	0	1	0	9.2061	0.238187	0.238039	0.00064265	1	8.64928e-06	1.52976e-07
2	0	0	1	0	9.6661	0.215186	0.215077	0.000601392	1	8.93417e-06	1.29345e-07
2	0	0	1	0	10.1261	0.192185	0.192044	0.000560999	1	9.20024e-06	1.07737e-07
2	0	0	0	0	10.5863	0.169184	0.169033	0.000522028	1	9.44843e-06	8.82402e-08
2	0	0	0	0	11.0463	0.146184	0.146061	0.000474143	1	9.67733e-06	6.9254e-08
2	0	0	0	0	11.5063	0.123183	0.123016	0.000408391	1	9.88116e-06	5.02388e-08
2	0	0	0	0	11.9663	0.100182	0.100068	0.00026226	1	1.0039e-05	2.62439e-08
2	0	0	0	0	12.4263	0.0771812	0.0770919	-0.000126905	1	1.00831e-05	-9.78334e-09
2	0	0	0	0	12.8863	0.0541804	0.0541084	-0.00092577	1	9.85371e-06	-5.00919e-08
2	0	0	0	0	13.3463	0.0311796	0.0310623	-0.00159187	1	9.24588e-06	-4.94472e-08
2	0	0	0	0	13.8063	0.00817876	0.00810854	-0.00145853	1	8.52007e-06	-1.18265e-08
2	0	0	0	0	14.2663	-0.014822	-0.0149661	-0.00110498	1	7.93193e-06	1.65373e-08
2	0	0	0	0	14.7263	-0.0378228	-0.0379518	-0.00086762	1	7.48214e-06	3.29277e-08
2	0	0	0	0	15.1863	-0.0608237	-0.0609809	-0.000719146	1	7.11931e-06	4.38541e-08
2	0	0	0	0	15.6463	-0.0838244	-0.0839898	-0.000620982	1	6.81165e-06	5.21561e-08
2	0	0	1	0	16.1065	-0.106825	-0.106925	-0.000554224	1	6.54145e-06	5.92602e-08
2	0	0	1	0	16.5665	-0.129826	-0.129963	-0.000503598	1	6.29823e-06	6.54492e-08
2	0	0	1	0	17.0265	-0.152827	-0.152897	-0.000465332	1	6.07512e-06	7.11478e-08
2	0	0	1	0	17.4865	-0.175828	-0.175976	-0.000435316	1	5.86732e-06	7.6605e-08
2	0	0	1	0	17.9465	-0.198828	-0.198949	-0.000416145	1	5.67065e-06	8.27915e-08
2	1	0	0	1	18.3959	-0.178728	-0.178839	-0.000222725	1	5.55369e-06	3.98319e-08
2	1	0	0	1	18.8559	-0.155727	-0.155792	-0.000181822	1	5.46303e-06	2.83264e-08
2	1	0	0	1	19.3159	-0.132726	-0.132778	-0.0001505	1	5.38826e-06	1.99831e-08
2	1	0	0	1	19.7759	-0.109725	-0.109842	-0.000128627	1	5.32552e-06	1.41287e-08
2	1	0	1	1	20.2361	-0.0867246	-0.0868532	-0.000109601	2	5.27243e-06	9.51922e-09
2	1	0	1	1	20.6961	-0.0637238	-0.0638029	-9.08015e-05	2	5.22781e-06	5.7934e-09
2	1	0	1	1	21.1561	-0.0407229	-0.0407759	-7.15231e-05	2	5.19166e-06	2.91642e-09
2	1	0	1	1	21.6161	-0.0177221	-0.0178051	-3.65113e-05	2	5.1671e-06	6.5009e-10
2	1	0	1	1	22.0761	0.00527866	0.00522288	5.62227e-05	2	5.16882e-06	2.93644e-10
2	1	0	1	1	22.5361	0.0282795	0.0282127	0.000357073	2	5.25307e-06	1.0074e-08
2	1	0	1	1	22.9961	0.0512802	0.0512026	0.00105902	2	5.56505e-06	5.42244e-08
2	1	0	1	1	23.4561	0.074281	0.0741946	0.00179189	2	6.23794e-06	1.32948e-07
2	1	0	1	1	23.9161	0.0972818	0.0971791	0.00189407	2	7.1117e-06	1.84064e-07
2	1	0	1	1	24.3761	0.120283	0.12023	0.00162649	2	7.92609e-06	1.95554e-07
2	1	0	1	1	24.8361	0.143283	0.143122	0.00138177	2	8.61695e-06	1.97761e-07
2	1	0	1	1	25.2961	0.166284	0.166191	0.00121807	2	9.21392e-06	2.02433e-07
2	1	0	0	1	25.7563	0.189285	0.189158	0.00110324	2	9.74801e-06	2.08686e-07
2	1	0	0	1	26.2163	0.212286	0.212226	0.00102699	2	1.02384e-05	2.17955e-07
2	1	0	0	1	26.6763	0.235287	0.235183	0.00097047	2	1.06982e-05	2.28238e-07
2	1	0	0	1	27.1363	0.258287	0.258197	0.000926431	2	1.11352e-05	2.39202e-07
2	1	0	0	1	27.5963	0.281288	0.281159	0.000901639	2	1.15566e-05	2.53504e-07
2	0	0	0	1	28.0367	0.296689	0.296524	0.00074889	2	1.19435e-05	2.22064e-07
2	0	0	0	1	28.4967	0.273688	0.273492	0.000642753	2	1.22582e-05	1.75787e-07
2	0	0	0	1	28.9567	0.250687	0.250509	0.000585912	2	1.2539e-05	1.46776e-07
2	0	0	0	1	29.4167	0.227686	0.227585	0.00054662	2	1.2798e-05	1.24403e-07
2	0	0	0	1	29.8767	0.204686	0.204531	0.000509372	2	1.30395e-05	1.04182e-07
2	0	0	1	1	30.3369	0.181685	0.181536	0.000474314	2	1.3265e-05	8.61053e-08
2	0	0	1	1	30.7969	0.158684	0.158543	0.000437114	2	1.3474e-05	6.93015e-08
2	0	0	1	1	31.2569	0.135683	0.135521	0.000387593	2	1.36637e-05	5.25269e-08
2	0	0	1	1	31.7169	0.112682	0.112548	0.000300427	2	1.38241e-05	3.38124e-08
2	0	0	1	1	32.1769	0.0896816	0.0896141	8.69615e-05	2	1.39205e-05	7.79298e-09
2	0	0	1	1	32.6369	0.0666808	0.0666115	-0.000457366	2	1.38513e-05	-3.04658e-08
2	0	0	1	1	33.0969	0.04368	0.0435973	-0.0013114	2	1.34438e-05	-5.71735e-08
2	0	0	1	1	33.5569	0.0206792	0.0205724	-0.00165606	2	1.27257e-05	-3.40691e-08
[...]
2	1	0	1	0	39.0665	-0.145227	-0.145264	-0.00020132	2	8.96147e-06	2.92445e-08
2	1	0	1	0	39.5265	-0.122226	-0.122273	-0.000172367	2	8.87666e-06	2.10758e-08
2	1	0	1	0	39.9865	-0.099225	-0.0993065	-0.000153039	3	8.80344e-06	1.51977e-08
2	1	0	0	0	40.4467	-0.0762242	-0.076323	-0.000130079	3	8.73967e-06	9.92803e-09
2	1	0	0	0	40.9067	-0.0532234	-0.0532981	-0.000114307	3	8.6847e-06	6.09235e-09
2	1	0	0	0	41.3667	-0.0302226	-0.0302722	-8.78622e-05	3	8.63972e-06	2.65978e-09
2	1	0	0	0	41.8267	-0.00722177	-0.00731521	-3.25157e-05	3	8.61146e-06	2.3786e-10
2	1	0	0	0	42.2867	0.015779	0.0156683	0.000128882	3	8.62799e-06	2.01935e-09
2	1	0	0	0	42.7467	0.0387798	0.0387355	0.000589402	3	8.7794e-06	2.28308e-08
2	1	0	0	0	43.2067	0.0617806	0.0617317	0.00137784	3	9.2292e-06	8.50564e-08
2	1	0	0	0	43.6667	0.0847814	0.0847195	0.00186658	3	1.00027e-05	1.58135e-07
2	1	0	0	0	44.1267	0.107782	0.107794	0.00175762	3	1.08525e-05	1.89461e-07
2	1	0	0	0	44.5867	0.130783	0.130664	0.00148345	3	1.15983e-05	1.93834e-07
2	1	0	0	0	45.0467	0.153784	0.153746	0.00127763	3	1.22316e-05	1.96432e-07
2	1	0	0	0	45.5067	0.176785	0.176686	0.00113715	3	1.2786e-05	2.00918e-07
2	1	0	1	0	45.9669	0.199785	0.199632	0.00104025	3	1.32869e-05	2.07667e-07
2	1	0	1	0	46.4269	0.222786	0.222687	0.000972136	3	1.375e-05	2.16482e-07
2	1	0	1	0	46.8869	0.245787	0.24575	0.000917397	3	1.41853e-05	2.25451e-07
2	1	0	1	0	47.3469	0.268788	0.268659	0.000878934	3	1.45991e-05	2.36134e-07
2	1	0	1	0	47.8069	0.291789	0.291697	0.000857022	3	1.49986e-05	2.49991e-07
2	0	0	1	0	48.2473	0.286188	0.286109	0.000653863	3	1.53295e-05	1.87076e-07
2	0	0	1	0	48.7073	0.263188	0.263047	0.000586053	3	1.56125e-05	1.5416e-07
2	0	0	1	0	49.1673	0.240187	0.240016	0.000541824	3	1.58709e-05	1.30047e-07
2	0	0	1	0	49.6273	0.217186	0.217095	0.000505871	3	1.61108e-05	1.09822e-07
2	0	0	1	0	50.0873	0.194185	0.194027	0.000470716	3	1.63345e-05	9.13316e-08
2	0	0	0	0	50.5475	0.171184	0.171076	0.000435922	3	1.65424e-05	7.45758e-08
2	0	0	0	0	51.0075	0.148184	0.148042	0.000397397	3	1.67332e-05	5.88313e-08
2	0	0	0	0	51.4675	0.125183	0.125073	0.000334907	3	1.69021e-05	4.18879e-08
2	0	0	0	0	51.9275	0.102182	0.102053	0.000211544	3	1.70315e-05	2.15886e-08
2	0	0	0	0	52.3875	0.0791812	0.0790637	-0.000111652	3	1.7065e-05	-8.82763e-09
2	0	0	0	0	52.8475	0.0561804	0.0560845	-0.000828494	3	1.6863e-05	-4.64657e-08
2	0	0	0	0	53.3075	0.0331796	0.0330363	-0.00156886	3	1.62924e-05	-5.18293e-08
2	0	0	0	0	53.7675	0.0101788	0.0100645	-0.00157345	3	1.55405e-05	-1.58359e-08
2	0	0	0	0	54.2275	-0.012822	-0.0130134	-0.00122969	3	1.48946e-05	1.60025e-08
2	0	0	0	0	54.6875	-0.0358228	-0.0359704	-0.000970735	3	1.43922e-05	3.49177e-08
2	0	0	0	0	55.1475	-0.0588236	-0.0589592	-0.000810415	3	1.39843e-05	4.77814e-08
2	0	0	0	0	55.6075	-0.0818244	-0.0819671	-0.000703465	3	1.36365e-05	5.7661e-08
2	0	0	1	0	56.0677	-0.104825	-0.104974	-0.000630172	3	1.33297e-05	6.61516e-08
2	0	0	1	0	56.5277	-0.127826	-0.127946	-0.000575455	3	1.30523e-05	7.3627e-08
2	0	0	1	0	56.9877	-0.150827	-0.150929	-0.000531796	3	1.27973e-05	8.02636e-08
2	0	0	1	0	57.4477	-0.173828	-0.173986	-0.000499323	3	1.25601e-05	8.68752e-08
2	0	0	1	0	57.9077	-0.196828	-0.196946	-0.000473664	3	1.23361e-05	9.32863e-08
2	1	0	0	1	58.3571	-0.180728	-0.18083	-0.00027654	3	1.21882e-05	5.00067e-08
2	1	0	0	1	58.8171	-0.157727	-0.157814	-0.000231753	3	1.20731e-05	3.65738e-08
2	1	0	0	1	59.2771	-0.134726	-0.134777	-0.000200106	3	1.19753e-05	2.69697e-08
2	1	0	0	1	59.7371	-0.111725	-0.111804	-0.000172957	3	1.18908e-05	1.93373e-08
2	1	0	1	1	60.1973	-0.0887246	-0.0888399	-0.000153452	3	1.18169e-05	1.36327e-08
2	1	0	1	1	60.4812	-0.0744991	-0.0745494	-0.000142785	3	1.17759e-05	1.06445e-08

File: C003C-5ppb-B_C01.mpt
EC-Lab ASCII FILE
Nb header lines : 59

Cyclic Voltammetry

Run on channel : 1 (SN 22398)
User :
CE vs. WE compliance from -10 V to 10 V
Electrode connection : standard
Ewe ctrl range : min = -1.00 V, max = 1.00 V
Safety Limits :
	Ewe min = -2.00 V
	Ewe max = 2.00 V
	|I| = 50.000 mA
	for t > 10 ms
Acquisition started on : 11/21/2018 11:25:53
Technique started on : 11/21/2018 11:25:53
Saved on :
	File : C003C-5ppb-B_C01.mpr
	Directory : \\ECCOMPUTER\Users\Lab User\Google Drive\Electrochemical Data\EC-Lab\Data\FREDsense\Tim\2018.11.21 - EC comparison to High Throughput\
	Host : 172.16.1.30
Device : SP-50 (SN 0301030103010301)
Address : USB
EC-Lab for windows v11.02 (software)
Internet server v11.02 (firmware)
Command interpretor v11.02 (firmware)
Electrode material : Au/Pd
Initial state :
Electrolyte : NaCl (0.2M)
Comments : Fe(CN)63-/Fe(CN)64- 5.10-3 M
Reference electrode : SCE Saturated Calomel Electrode (0.241 V)
Electrode surface area : 0.001 cm²
Characteristic mass : 0.001 g
Equivalent Weight : 0.000 g/eq.
Density : 0.000 g/cm3
Cycle Definition : Charge/Discharge alternance
Ei (V)              -0.100
vs.                 Ref
dE/dt               50.000
dE/dt unit          mV/s
E1 (V)              0.300
vs.                 Ref
Step percent        50
N                   10
E range min (V)     -1.000
E range max (V)     1.000
I Range             Auto
I Range min         Unset
I Range max         Unset
I Range init        Unset
Bandwidth           5
E2 (V)              -0.200
vs.                 Ref
nc cycles           2
Reverse Scan        1
Ef (V)              0.000
vs.                 Eoc

mode	ox/red	error	control changes	counter inc.	time/s	control/V	Ewe/V	<I>/mA	cycle number	(Q-Qo)/C	P/W
2	1	0	1	0	0.000000000000000E+000	-0.0984851	-0.0987584	-2.34559e-05	1	0.0000000E+000	2.31647e-09
2	1	0	1	0	0.4865	-0.0741592	-0.0743851	4.52445e-05	1	1.48082e-08	-3.36552e-09
2	1	0	1	0	0.9465	-0.0511582	-0.051355	5.69469e-05	1	3.98941e-08	-2.92451e-09
2	1	0	1	0	1.4065	-0.0281573	-0.0283789	7.28286e-05	1	7.03656e-08	-2.06679e-09
2	1	0	1	0	1.8665	-0.00515635	-0.00534237	0.000117476	1	1.12816e-07	-6.27601e-10
2	1	0	1	0	2.3265	0.0178446	0.0176867	0.000277591	1	1.97273e-07	4.90967e-09
2	1	0	1	0	2.7865	0.0408455	0.0406681	0.00077545	1	4.24274e-07	3.15361e-08
2	1	0	1	0	3.2465	0.0638464	0.063747	0.00160489	1	9.70735e-07	1.02307e-07
2	1	0	1	0	3.7065	0.0868473	0.0866648	0.00206197	1	1.84273e-06	1.787e-07
2	1	0	1	0	4.1665	0.109848	0.10971	0.00195152	1	2.78032e-06	2.14101e-07
2	1	0	1	0	4.6265	0.132849	0.13265	0.00169752	1	3.62013e-06	2.25175e-07
2	1	0	0	0	5.0867	0.15585	0.155702	0.00149542	1	4.35357e-06	2.3284e-07
2	1	0	0	0	5.5467	0.178851	0.178742	0.0013505	1	5.00732e-06	2.41391e-07
2	1	0	0	0	6.0067	0.201852	0.201647	0.00124516	1	5.60423e-06	2.51084e-07
2	1	0	0	0	6.4667	0.224853	0.224642	0.00117449	1	6.16113e-06	2.6384e-07
2	1	0	0	0	6.9267	0.247854	0.247675	0.00111858	1	6.68871e-06	2.77044e-07
2	1	0	0	0	7.3867	0.270855	0.270685	0.00107875	1	7.19461e-06	2.92001e-07
2	1	0	0	0	7.8467	0.293856	0.293734	0.00105297	1	7.68538e-06	3.09294e-07
2	0	0	1	0	8.2953	0.283705	0.283551	0.000826878	1	8.10123e-06	2.34462e-07
2	0	0	1	0	8.7553	0.260704	0.260542	0.000743494	1	8.46002e-06	1.93711e-07
2	0	0	1	0	9.2153	0.237703	0.237495	0.000692348	1	8.78843e-06	1.64429e-07
2	0	0	1	0	9.6753	0.214702	0.214479	0.000644312	1	9.09429e-06	1.38191e-07
2	0	0	1	0	10.1353	0.191702	0.191471	0.0006038	1	9.38026e-06	1.1561e-07
2	0	0	1	0	10.5953	0.168701	0.168477	0.000560009	1	9.6468e-06	9.43485e-08
2	0	0	0	0	11.0555	0.1457	0.145453	0.000506885	1	9.89173e-06	7.37279e-08
2	0	0	0	0	11.5155	0.122699	0.122482	0.000430531	1	1.01077e-05	5.27323e-08
2	0	0	0	0	11.9755	0.0996979	0.0994499	0.000273493	1	1.02734e-05	2.71988e-08
2	0	0	0	0	12.4355	0.0766969	0.0765172	-0.000102242	1	1.03244e-05	-7.82331e-09
2	0	0	0	0	12.8955	0.053696	0.053485	-0.00086045	1	1.01146e-05	-4.60212e-08
2	0	0	0	0	13.3555	0.0306951	0.0304771	-0.00154127	1	9.53842e-06	-4.69735e-08
2	0	0	0	0	13.8155	0.00769417	0.00748725	-0.00148681	1	8.8165e-06	-1.11321e-08
2	0	0	0	0	14.2755	-0.0153068	-0.0155514	-0.00115728	1	8.20761e-06	1.79973e-08
2	0	0	0	0	14.7355	-0.0383077	-0.0385338	-0.0009059	1	7.73635e-06	3.49078e-08
2	0	0	0	0	15.1955	-0.0613086	-0.0615767	-0.000745998	1	7.3581e-06	4.59361e-08
2	0	0	0	0	15.6555	-0.0843096	-0.0846111	-0.000641064	1	7.04006e-06	5.42411e-08
2	0	0	1	0	16.1157	-0.107311	-0.10749	-0.000565079	1	6.76301e-06	6.07401e-08
2	0	0	1	0	16.5757	-0.130311	-0.130492	-0.000511218	1	6.51548e-06	6.671e-08
2	0	0	1	0	17.0357	-0.153312	-0.153503	-0.00046827	1	6.29005e-06	7.18809e-08
2	0	0	1	0	17.4957	-0.176313	-0.176569	-0.000435215	1	6.08158e-06	7.68457e-08
2	0	0	1	0	17.9557	-0.199314	-0.199539	-0.000414704	1	5.88575e-06	8.27497e-08
2	1	0	0	1	18.4051	-0.178213	-0.178422	-0.000242146	1	5.76267e-06	4.32041e-08
2	1	0	0	1	18.8651	-0.155212	-0.155426	-0.00020227	1	5.66262e-06	3.14381e-08
2	1	0	0	1	19.3251	-0.132212	-0.132368	-0.000172969	1	5.57816e-06	2.28955e-08
2	1	0	0	1	19.7851	-0.109211	-0.109425	-0.000150497	1	5.50579e-06	1.64682e-08
2	1	0	1	1	20.2453	-0.0862097	-0.0864218	-0.000129267	2	5.44326e-06	1.11714e-08
2	1	0	1	1	20.7053	-0.0632087	-0.0634499	-0.00011146	2	5.38943e-06	7.0721e-09
2	1	0	1	1	21.1653	-0.0402078	-0.0404018	-8.96357e-05	2	5.34445e-06	3.62144e-09
2	1	0	1	1	21.6253	-0.0172068	-0.0174119	-5.41117e-05	2	5.31185e-06	9.42187e-10
2	1	0	1	1	22.0853	0.00579409	0.00560765	4.27486e-05	2	5.30677e-06	2.39719e-10
2	1	0	1	1	22.5453	0.028795	0.0286452	0.000337196	2	5.38371e-06	9.65906e-09
2	1	0	1	1	23.0053	0.0517959	0.0516944	0.0009945	2	5.67717e-06	5.14101e-08
2	1	0	1	1	23.4653	0.0747969	0.0746069	0.00172075	2	6.31505e-06	1.28379e-07
2	1	0	1	1	23.9253	0.0977978	0.0976572	0.00191032	2	7.17515e-06	1.86556e-07
2	1	0	1	1	24.3853	0.120799	0.120643	0.00170984	2	8.01538e-06	2.0628e-07
2	1	0	1	1	24.8453	0.1438	0.143645	0.00147607	2	8.74765e-06	2.1203e-07
2	1	0	0	1	25.3055	0.166801	0.166679	0.00129553	2	9.38449e-06	2.15937e-07
2	1	0	0	1	25.7655	0.189801	0.189645	0.00116811	2	9.95129e-06	2.21527e-07
2	1	0	0	1	26.2255	0.212802	0.212654	0.00107691	2	1.04683e-05	2.2901e-07
2	1	0	0	1	26.6855	0.235803	0.235689	0.00101037	2	1.09496e-05	2.38132e-07
2	1	0	0	1	27.1455	0.258804	0.258665	0.000962726	2	1.14042e-05	2.49023e-07
2	1	0	0	1	27.6055	0.281805	0.281639	0.000928746	2	1.18397e-05	2.61571e-07
2	0	0	0	1	28.0551	0.295706	0.295515	0.000781383	2	1.22442e-05	2.3091e-07
2	0	0	0	1	28.5151	0.272705	0.272537	0.000686621	2	1.25779e-05	1.8713e-07
2	0	0	0	1	28.9751	0.249704	0.249527	0.000633324	2	1.28796e-05	1.58032e-07
2	0	0	0	1	29.4351	0.226703	0.226504	0.000589925	2	1.31594e-05	1.3362e-07
2	0	0	0	1	29.8951	0.203702	0.203449	0.000552057	2	1.34209e-05	1.12316e-07
2	0	0	0	1	30.3551	0.180701	0.180533	0.000513594	2	1.3665e-05	9.27209e-08
2	0	0	0	1	30.8151	0.1577	0.157497	0.000471501	2	1.38906e-05	7.42599e-08
2	0	0	1	1	31.2753	0.134699	0.134462	0.000412975	2	1.4094e-05	5.55292e-08
2	0	0	1	1	31.7353	0.111698	0.111443	0.000314675	2	1.42634e-05	3.50683e-08
2	0	0	1	1	32.1953	0.0886974	0.088502	9.29902e-05	2	1.4364e-05	8.22982e-09
2	0	0	1	1	32.6553	0.0656965	0.0654644	-0.000436093	2	1.42993e-05	-2.85486e-08
2	0	0	1	1	33.1153	0.0426956	0.0424311	-0.00126079	2	1.3909e-05	-5.34967e-08
2	0	0	1	1	33.5753	0.0196946	0.019472	-0.00164873	2	1.32076e-05	-3.2104e-08
[...]
2	1	0	1	0	39.0849	-0.144212	-0.144432	-0.000228284	2	9.32019e-06	3.29714e-08
2	1	0	1	0	39.5449	-0.121211	-0.121387	-0.00019853	2	9.22382e-06	2.4099e-08
2	1	0	0	0	40.0051	-0.0982101	-0.0983821	-0.000175163	3	9.13922e-06	1.72329e-08
2	1	0	0	0	40.4651	-0.0752092	-0.0754506	-0.000156001	3	9.06445e-06	1.17704e-08
2	1	0	0	0	40.9251	-0.0522083	-0.0524851	-0.000131476	3	8.9989e-06	6.90054e-09
2	1	0	0	0	41.3851	-0.0292073	-0.0293998	-0.000106802	3	8.94411e-06	3.13994e-09
2	1	0	0	0	41.8451	-0.0062064	-0.00637388	-4.86005e-05	3	8.90769e-06	3.09774e-10
2	1	0	0	0	42.3051	0.0167945	0.0165884	0.000119822	3	8.91859e-06	1.98765e-09
2	1	0	0	0	42.7651	0.0397955	0.0396069	0.000566176	3	9.06375e-06	2.24245e-08
2	1	0	0	0	43.2251	0.0627964	0.0626073	0.00131677	3	9.49369e-06	8.24392e-08
2	1	0	0	0	43.6851	0.0857973	0.0855972	0.00183186	3	1.02409e-05	1.56802e-07
2	1	0	0	0	44.1451	0.108798	0.10867	0.00180541	3	1.10946e-05	1.96194e-07
2	1	0	0	0	44.6051	0.131799	0.131601	0.00157125	3	1.18733e-05	2.06778e-07
2	1	0	1	0	45.0653	0.1548	0.154608	0.00135882	3	1.25466e-05	2.10084e-07
2	1	0	1	0	45.5253	0.177801	0.177623	0.00120824	3	1.31364e-05	2.14611e-07
2	1	0	1	0	45.9853	0.200802	0.200636	0.00109609	3	1.36661e-05	2.19916e-07
2	1	0	1	0	46.4453	0.223803	0.223635	0.00101759	3	1.41528e-05	2.27568e-07
2	1	0	1	0	46.9053	0.246804	0.246631	0.000954601	3	1.46072e-05	2.35434e-07
2	1	0	1	0	47.3653	0.269805	0.269637	0.000909093	3	1.50369e-05	2.45125e-07
2	1	0	1	0	47.8253	0.292806	0.292607	0.000881237	3	1.54493e-05	2.57856e-07
2	0	0	1	0	48.2749	0.284705	0.284481	0.000694077	3	1.57989e-05	1.97452e-07
2	0	0	1	0	48.7349	0.261704	0.261507	0.000629899	3	1.61016e-05	1.64723e-07
2	0	0	1	0	49.1949	0.238703	0.238507	0.000586602	3	1.63801e-05	1.39909e-07
2	0	0	1	0	49.6549	0.215703	0.215472	0.00054809	3	1.66394e-05	1.18098e-07
2	0	0	1	0	50.1149	0.192702	0.192468	0.000509217	3	1.68815e-05	9.80081e-08
2	0	0	1	0	50.5749	0.169701	0.169528	0.000470685	3	1.7106e-05	7.97944e-08
2	0	0	0	0	51.0351	0.1467	0.146521	0.000423363	3	1.7311e-05	6.20317e-08
2	0	0	0	0	51.4951	0.123699	0.12349	0.000354828	3	1.749e-05	4.38179e-08
2	0	0	0	0	51.9551	0.100698	0.100475	0.000216972	3	1.76242e-05	2.18002e-08
2	0	0	0	0	52.4151	0.077697	0.077501	-0.000117038	3	1.7657e-05	-9.07055e-09
2	0	0	0	0	52.8751	0.0546961	0.0545218	-0.000809698	3	1.74563e-05	-4.41462e-08
2	0	0	0	0	53.3351	0.0316951	0.0314641	-0.00154101	3	1.68979e-05	-4.84863e-08
2	0	0	0	0	53.7951	0.00869421	0.00850709	-0.00159537	3	1.61483e-05	-1.3572e-08
2	0	0	0	0	54.2551	-0.0143067	-0.0145633	-0.00127976	3	1.54838e-05	1.86376e-08
2	0	0	0	0	54.7151	-0.0373077	-0.0375415	-0.00101668	3	1.49586e-05	3.81679e-08
2	0	0	0	0	55.1751	-0.0603086	-0.0605622	-0.000845371	3	1.45322e-05	5.11975e-08
2	0	0	0	0	55.6351	-0.0833095	-0.0836124	-0.000730429	3	1.41703e-05	6.1073e-08
2	0	0	1	0	56.0953	-0.10631	-0.106565	-0.000650684	3	1.38526e-05	6.93403e-08
2	0	0	1	0	56.5553	-0.129311	-0.129529	-0.000589595	3	1.35666e-05	7.63694e-08
2	0	0	1	0	57.0153	-0.152312	-0.152542	-0.000543511	3	1.33051e-05	8.29082e-08
2	0	0	1	0	57.4753	-0.175313	-0.175551	-0.000505712	3	1.30632e-05	8.87781e-08
2	0	0	1	0	57.9353	-0.198314	-0.198566	-0.000478529	3	1.28361e-05	9.50196e-08
2	1	0	0	1	58.3847	-0.179213	-0.179393	-0.000302599	3	1.2682e-05	5.42841e-08
2	1	0	0	1	58.8447	-0.156213	-0.156467	-0.000261458	3	1.2554e-05	4.09097e-08
2	1	0	0	1	59.3047	-0.133212	-0.133426	-0.000228453	3	1.24428e-05	3.04815e-08
2	1	0	0	1	59.7647	-0.110211	-0.110415	-0.000202335	3	1.23452e-05	2.23408e-08
2	1	0	1	1	60.2249	-0.0872097	-0.0874172	-0.000181518	3	1.22586e-05	1.58678e-08
2	1	0	1	1	60.5676	-0.070034	-0.0704213	-0.000169016	3	1.22004e-05	1.19023e-08