Folder: automated_analyisis/AutoAnalysis Examples/EC (part 11)

File: C003B-10ppb-A_C01.mpt
EC-Lab ASCII FILE
Nb header lines : 59

Cyclic Voltammetry

Run on channel : 1 (SN 22398)
User :
CE vs. WE compliance from -10 V to 10 V
Electrode connection : standard
Ewe ctrl range : min = -1.00 V, max = 1.00 V
Safety Limits :
	Ewe min = -2.00 V
	Ewe max = 2.00 V
	|I| = 50.000 mA
	for t > 10 ms
Acquisition started on : 11/21/2018 10:19:48
Technique started on : 11/21/2018 10:19:48
Saved on :
	File : C003B-10ppb-A_C01.mpr
	Directory : \\ECCOMPUTER\Users\Lab User\Google Drive\Electrochemical Data\EC-Lab\Data\FREDsense\Tim\2018.11.21 - EC comparison to High Throughput\
	Host : 172.16.1.30
Device : SP-50 (SN 0301030103010301)
Address : USB
EC-Lab for windows v11.02 (software)
Internet server v11.02 (firmware)
Command interpretor v11.02 (firmware)
Electrode material : Au/Pd
Initial state :
Electrolyte : NaCl (0.2M)
Comments : Fe(CN)63-/Fe(CN)64- 5.10-3 M
Reference electrode : SCE Saturated Calomel Electrode (0.241 V)
Electrode surface area : 0.001 cm²
Characteristic mass : 0.001 g
Equivalent Weight : 0.000 g/eq.
Density : 0.000 g/cm3
Cycle Definition : Charge/Discharge alternance
Ei (V)              -0.100
vs.                 Ref
dE/dt               50.000
dE/dt unit          mV/s
E1 (V)              0.300
vs.                 Ref
Step percent        50
N                   10
E range min (V)     -1.000
E range max (V)     1.000
I Range             Auto
I Range min         Unset
I Range max         Unset
I Range init        Unset
Bandwidth           5
E2 (V)              -0.200
vs.                 Ref
nc cycles           2
Reverse Scan        1
Ef (V)              0.000
vs.                 Eoc

mode	ox/red	error	control changes	counter inc.	time/s	control/V	Ewe/V	<I>/mA	cycle number	(Q-Qo)/C	P/W
2	1	0	1	0	0.000000000000000E+000	-0.0985237	-0.0985242	-0.000134734	1	0.0000000E+000	1.32745e-08
2	1	0	1	0	0.4865	-0.0741978	-0.0742336	5.17396e-05	1	1.86224e-08	-3.84081e-09
2	1	0	1	0	0.9465	-0.0511969	-0.0512585	6.28343e-05	1	4.65121e-08	-3.22079e-09
2	1	0	1	0	1.4065	-0.028196	-0.0283227	7.81189e-05	1	7.96198e-08	-2.21254e-09
2	1	0	1	0	1.8665	-0.00519512	-0.00525336	0.000107328	1	1.21956e-07	-5.63833e-10
2	1	0	1	0	2.3265	0.0178058	0.0177407	0.000217889	1	1.93159e-07	3.8655e-09
2	1	0	1	0	2.7865	0.0408067	0.0406776	0.00055049	1	3.59884e-07	2.23926e-08
2	1	0	1	0	3.2465	0.0638075	0.0637491	0.00110421	1	7.40778e-07	7.03927e-08
2	1	0	1	0	3.7065	0.0868084	0.0867792	0.00138207	1	1.33266e-06	1.19935e-07
2	1	0	1	0	4.1665	0.109809	0.109722	0.00126788	1	1.95129e-06	1.39114e-07
2	1	0	1	0	4.6265	0.13281	0.132763	0.00109307	1	2.49419e-06	1.45119e-07
2	1	0	1	0	5.0865	0.155811	0.155783	0.000966026	1	2.96683e-06	1.5049e-07
2	1	0	0	0	5.5467	0.178812	0.178737	0.000884782	1	3.39274e-06	1.58143e-07
2	1	0	0	0	6.0067	0.201813	0.201723	0.000833103	1	3.7881e-06	1.68056e-07
2	1	0	0	0	6.4667	0.224814	0.224731	0.000800017	1	4.16408e-06	1.79789e-07
2	1	0	0	0	6.9267	0.247815	0.247673	0.000780996	1	4.52893e-06	1.93432e-07
2	1	0	0	0	7.3867	0.270815	0.270768	0.000767951	1	4.88547e-06	2.07937e-07
2	1	0	0	0	7.8467	0.293816	0.293698	0.0007638	1	5.23904e-06	2.24327e-07
2	0	0	1	0	8.2963	0.283716	0.283604	0.000528758	1	5.52311e-06	1.49958e-07
2	0	0	1	0	8.7563	0.260715	0.260655	0.000453208	1	5.74576e-06	1.18131e-07
2	0	0	1	0	9.2163	0.237714	0.237574	0.000406253	1	5.94142e-06	9.65155e-08
2	0	0	1	0	9.6763	0.214713	0.214532	0.000372397	1	6.11941e-06	7.98909e-08
2	0	0	1	0	10.1363	0.191712	0.191621	0.000343122	1	6.28332e-06	6.57496e-08
2	0	0	1	0	10.5963	0.168712	0.168619	0.000317149	1	6.43435e-06	5.34773e-08
2	0	0	0	0	11.0565	0.145711	0.145595	0.000285344	1	6.57192e-06	4.15446e-08
2	0	0	0	0	11.5165	0.12271	0.122579	0.000237275	1	6.69184e-06	2.90848e-08
2	0	0	0	0	11.9765	0.0997089	0.0996131	0.000136417	1	6.78015e-06	1.35889e-08
2	0	0	0	0	12.4365	0.076708	0.0766328	-0.000111659	1	6.79369e-06	-8.55675e-09
2	0	0	0	0	12.8965	0.0537071	0.0536577	-0.000612174	1	6.63445e-06	-3.28479e-08
2	0	0	0	0	13.3565	0.0307063	0.0306318	-0.00103548	1	6.238e-06	-3.17188e-08
2	0	0	0	0	13.8165	0.00770538	0.00765472	-0.000970479	1	5.76063e-06	-7.42874e-09
2	0	0	0	0	14.2765	-0.0152955	-0.0154433	-0.000747457	1	5.36608e-06	1.15432e-08
2	0	0	0	0	14.7365	-0.0382964	-0.038395	-0.000591237	1	5.05993e-06	2.27005e-08
2	0	0	0	0	15.1965	-0.0612973	-0.061422	-0.000497823	1	4.8098e-06	3.05773e-08
2	0	0	0	0	15.6565	-0.0842982	-0.0844108	-0.000436777	1	4.59486e-06	3.68687e-08
2	0	0	1	0	16.1167	-0.107299	-0.107375	-0.000394093	1	4.40359e-06	4.23159e-08
2	0	0	1	0	16.5767	-0.1303	-0.13037	-0.000359753	1	4.22931e-06	4.69011e-08
2	0	0	1	0	17.0367	-0.153301	-0.153419	-0.000337802	1	4.0675e-06	5.18251e-08
2	0	0	1	0	17.4967	-0.176302	-0.176434	-0.000323229	1	3.91467e-06	5.70286e-08
2	0	0	1	0	17.9567	-0.199303	-0.199361	-0.000312656	1	3.76775e-06	6.23314e-08
2	1	0	0	1	18.3961	-0.178752	-0.1788	-0.000131529	1	3.69657e-06	2.35174e-08
2	1	0	0	1	18.8561	-0.155751	-0.155831	-9.95381e-05	1	3.64557e-06	1.55112e-08
2	1	0	0	1	19.3161	-0.13275	-0.132848	-7.72745e-05	1	3.60703e-06	1.02657e-08
2	1	0	0	1	19.7761	-0.109749	-0.109817	-5.83528e-05	1	3.57758e-06	6.40811e-09
2	1	0	1	1	20.2363	-0.0867483	-0.0867929	-4.5096e-05	2	3.55534e-06	3.91401e-09
2	1	0	1	1	20.6963	-0.0637474	-0.0638221	-3.24734e-05	2	3.53922e-06	2.07252e-09
2	1	0	1	1	21.1563	-0.0407465	-0.040846	-1.73583e-05	2	3.52899e-06	7.09017e-10
2	1	0	1	1	21.6163	-0.0177456	-0.0178243	2.47833e-06	2	3.52647e-06	-4.41745e-11
2	1	0	1	1	22.0763	0.00525529	0.00523445	6.47243e-05	2	3.54102e-06	3.38797e-10
2	1	0	1	1	22.5363	0.0282562	0.0281522	0.000252515	2	3.60761e-06	7.10886e-09
2	1	0	1	1	22.9963	0.0512571	0.0511983	0.000688357	2	3.81576e-06	3.52427e-08
2	1	0	1	1	23.4563	0.0742579	0.0742305	0.00116577	2	4.25201e-06	8.65356e-08
2	1	0	1	1	23.9163	0.0972588	0.0971928	0.00125225	2	4.8258e-06	1.21709e-07
2	1	0	1	1	24.3763	0.12026	0.120183	0.00109202	2	5.36976e-06	1.31242e-07
2	1	0	1	1	24.8363	0.143261	0.143106	0.000931237	2	5.83484e-06	1.33265e-07
2	1	0	0	1	25.2965	0.166261	0.166194	0.000822249	2	6.23819e-06	1.36653e-07
2	1	0	0	1	25.7565	0.189262	0.189194	0.000750091	2	6.59981e-06	1.41912e-07
2	1	0	0	1	26.2165	0.212263	0.212189	0.000698276	2	6.9336e-06	1.48166e-07
2	1	0	0	1	26.6765	0.235264	0.235151	0.000666687	2	7.24876e-06	1.56772e-07
2	1	0	0	1	27.1365	0.258265	0.258188	0.000645561	2	7.55185e-06	1.66676e-07
2	1	0	0	1	27.5965	0.281266	0.281205	0.000641166	2	7.84878e-06	1.80299e-07
2	0	0	0	1	28.0471	0.296216	0.296115	0.00050369	2	8.12984e-06	1.4915e-07
2	0	0	0	1	28.5071	0.273216	0.273044	0.000413285	2	8.33616e-06	1.12845e-07
2	0	0	0	1	28.9671	0.250215	0.250037	0.000365831	2	8.51403e-06	9.14715e-08
2	0	0	0	1	29.4271	0.227214	0.227034	0.000339129	2	8.67496e-06	7.69936e-08
2	0	0	0	1	29.8871	0.204213	0.204106	0.000311615	2	8.82306e-06	6.36027e-08
2	0	0	0	1	30.3471	0.181212	0.18111	0.000288585	2	8.95978e-06	5.22657e-08
2	0	0	1	1	30.8073	0.158211	0.158127	0.0002614	2	9.08523e-06	4.13343e-08
2	0	0	1	1	31.2673	0.13521	0.1351	0.000226139	2	9.19736e-06	3.05514e-08
2	0	0	1	1	31.7273	0.112209	0.112074	0.000168703	2	9.28916e-06	1.89072e-08
2	0	0	1	1	32.1873	0.0892085	0.0890988	2.51871e-05	2	9.3378e-06	2.24414e-09
2	0	0	1	1	32.6473	0.0662076	0.0661396	-0.000322539	2	9.27895e-06	-2.13326e-08
2	0	0	1	1	33.1073	0.0432067	0.043101	-0.000861494	2	9.00624e-06	-3.71313e-08
2	0	0	1	1	33.5673	0.0202059	0.0201154	-0.00108818	2	8.53577e-06	-2.18893e-08
[...]
2	1	0	1	0	39.5269	-0.12225	-0.122352	-8.74206e-05	2	5.92154e-06	1.06961e-08
2	1	0	1	0	39.9869	-0.0992488	-0.0993066	-7.21183e-05	3	5.88597e-06	7.16182e-09
2	1	0	0	0	40.4471	-0.0762479	-0.0762425	-5.72594e-05	3	5.85736e-06	4.3656e-09
2	1	0	0	0	40.9071	-0.053247	-0.0533957	-4.50307e-05	3	5.83495e-06	2.40445e-09
2	1	0	0	0	41.3671	-0.0302461	-0.0303762	-2.97814e-05	3	5.81928e-06	9.04644e-10
2	1	0	0	0	41.8271	-0.00724519	-0.00737679	7.4313e-06	3	5.81448e-06	-5.48192e-11
2	1	0	0	0	42.2871	0.0157557	0.0156926	0.000109202	3	5.83835e-06	1.71366e-09
2	1	0	0	0	42.7471	0.0387566	0.0386973	0.000397669	3	5.94683e-06	1.53887e-08
2	1	0	0	0	43.2071	0.0617575	0.0617242	0.000895863	3	6.24243e-06	5.52965e-08
2	1	0	0	0	43.6671	0.0847583	0.0847268	0.00122621	3	6.74752e-06	1.03893e-07
2	1	0	0	0	44.1271	0.107759	0.107669	0.00117304	3	7.31055e-06	1.26299e-07
2	1	0	0	0	44.5871	0.13076	0.130669	0.000993409	3	7.81004e-06	1.29808e-07
2	1	0	0	0	45.0471	0.153761	0.153669	0.000858548	3	8.23592e-06	1.31932e-07
2	1	0	1	0	45.5073	0.176762	0.176627	0.000764795	3	8.60948e-06	1.35083e-07
2	1	0	1	0	45.9673	0.199763	0.19965	0.000702598	3	8.94744e-06	1.40273e-07
2	1	0	1	0	46.4273	0.222764	0.2227	0.000660341	3	9.26124e-06	1.47058e-07
2	1	0	1	0	46.8873	0.245765	0.245659	0.000628341	3	9.55826e-06	1.54358e-07
2	1	0	1	0	47.3473	0.268765	0.268661	0.000609809	3	9.84404e-06	1.63832e-07
2	1	0	1	0	47.8073	0.291766	0.291713	0.000604985	3	1.01244e-05	1.76482e-07
2	0	0	1	0	48.2579	0.285716	0.285542	0.000424096	3	1.03547e-05	1.21097e-07
2	0	0	1	0	48.7179	0.262715	0.26258	0.000368053	3	1.0535e-05	9.66433e-08
2	0	0	1	0	49.1779	0.239714	0.239526	0.000335469	3	1.06958e-05	8.03535e-08
2	0	0	1	0	49.6379	0.216713	0.216539	0.000306871	3	1.08431e-05	6.64496e-08
2	0	0	1	0	50.0979	0.193713	0.193569	0.000286799	3	1.0979e-05	5.55154e-08
2	0	0	1	0	50.5579	0.170712	0.170588	0.000262469	3	1.11041e-05	4.47741e-08
2	0	0	0	0	51.0181	0.147711	0.147542	0.000232263	3	1.12178e-05	3.42687e-08
2	0	0	0	0	51.4781	0.12471	0.124602	0.000194325	3	1.13162e-05	2.42133e-08
2	0	0	0	0	51.9381	0.101709	0.10163	0.00010819	3	1.13877e-05	1.09954e-08
2	0	0	0	0	52.3981	0.0787081	0.0786078	-0.000103037	3	1.13955e-05	-8.09954e-09
2	0	0	0	0	52.8581	0.0557072	0.0556243	-0.000558386	3	1.12518e-05	-3.10598e-08
2	0	0	0	0	53.3181	0.0327063	0.0325804	-0.00103174	3	1.08744e-05	-3.36144e-08
2	0	0	0	0	53.7781	0.00970546	0.00966047	-0.00104305	3	1.03788e-05	-1.00764e-08
2	0	0	0	0	54.2381	-0.0132954	-0.013358	-0.000827682	3	9.94738e-06	1.10562e-08
2	0	0	0	0	54.6981	-0.0362963	-0.0364772	-0.000658931	3	9.60757e-06	2.4036e-08
2	0	0	0	0	55.1581	-0.0592972	-0.059466	-0.000558084	3	9.32839e-06	3.3187e-08
2	0	0	0	0	55.6181	-0.0822981	-0.0824442	-0.000491113	3	9.08745e-06	4.04894e-08
2	0	0	1	0	56.0783	-0.105299	-0.105396	-0.000443084	3	8.87243e-06	4.66993e-08
2	0	0	1	0	56.5383	-0.1283	-0.128493	-0.000409461	3	8.67626e-06	5.26128e-08
2	0	0	1	0	56.9983	-0.151301	-0.15137	-0.000380307	3	8.49416e-06	5.75672e-08
2	0	0	1	0	57.4583	-0.174302	-0.174403	-0.000363648	3	8.3227e-06	6.34212e-08
2	0	0	1	0	57.9183	-0.197303	-0.197358	-0.000349587	3	8.15853e-06	6.89937e-08
2	1	0	0	1	58.3577	-0.180752	-0.180742	-0.000167502	3	8.06602e-06	3.02747e-08
2	1	0	0	1	58.8177	-0.157751	-0.157804	-0.000133426	3	7.99937e-06	2.10553e-08
2	1	0	0	1	59.2777	-0.13475	-0.134844	-0.000107983	3	7.94595e-06	1.45609e-08
2	1	0	0	1	59.7377	-0.111749	-0.111818	-9.03034e-05	3	7.90245e-06	1.00976e-08
2	1	0	1	1	60.1979	-0.0887484	-0.0888442	-7.12899e-05	3	7.86684e-06	6.33369e-09
2	1	0	1	1	60.6579	-0.0657475	-0.0658501	-5.87503e-05	3	7.83786e-06	3.86871e-09
2	1	0	0	1	60.7152	-0.0628723	-0.0630312	-4.83215e-05	3	7.83471e-06	3.04576e-09

File: C003B-10ppb-B_C01.mpt
EC-Lab ASCII FILE
Nb header lines : 59

Cyclic Voltammetry

Run on channel : 1 (SN 22398)
User :
CE vs. WE compliance from -10 V to 10 V
Electrode connection : standard
Ewe ctrl range : min = -1.00 V, max = 1.00 V
Safety Limits :
	Ewe min = -2.00 V
	Ewe max = 2.00 V
	|I| = 50.000 mA
	for t > 10 ms
Acquisition started on : 11/21/2018 11:15:02
Technique started on : 11/21/2018 11:15:02
Saved on :
	File : C003B-10ppb-B_C01.mpr
	Directory : \\ECCOMPUTER\Users\Lab User\Google Drive\Electrochemical Data\EC-Lab\Data\FREDsense\Tim\2018.11.21 - EC comparison to High Throughput\
	Host : 172.16.1.30
Device : SP-50 (SN 0301030103010301)
Address : USB
EC-Lab for windows v11.02 (software)
Internet server v11.02 (firmware)
Command interpretor v11.02 (firmware)
Electrode material : Au/Pd
Initial state :
Electrolyte : NaCl (0.2M)
Comments : Fe(CN)63-/Fe(CN)64- 5.10-3 M
Reference electrode : SCE Saturated Calomel Electrode (0.241 V)
Electrode surface area : 0.001 cm²
Characteristic mass : 0.001 g
Equivalent Weight : 0.000 g/eq.
Density : 0.000 g/cm3
Cycle Definition : Charge/Discharge alternance
Ei (V)              -0.100
vs.                 Ref
dE/dt               50.000
dE/dt unit          mV/s
E1 (V)              0.300
vs.                 Ref
Step percent        50
N                   10
E range min (V)     -1.000
E range max (V)     1.000
I Range             Auto
I Range min         Unset
I Range max         Unset
I Range init        Unset
Bandwidth           5
E2 (V)              -0.200
vs.                 Ref
nc cycles           2
Reverse Scan        1
Ef (V)              0.000
vs.                 Eoc

mode	ox/red	error	control changes	counter inc.	time/s	control/V	Ewe/V	<I>/mA	cycle number	(Q-Qo)/C	P/W
2	1	0	1	0	0.000000000000000E+000	-0.0984851	-0.0987203	-0.00010294	1	0.0000000E+000	1.01623e-08
2	1	0	1	0	0.4865	-0.0741592	-0.0743523	4.76009e-05	1	1.87076e-08	-3.53924e-09
2	1	0	1	0	0.9465	-0.0511582	-0.0513804	5.89323e-05	1	4.46373e-08	-3.02797e-09
2	1	0	1	0	1.4065	-0.0281573	-0.0283651	7.09862e-05	1	7.52559e-08	-2.01353e-09
2	1	0	1	0	1.8665	-0.00515635	-0.0053498	9.87557e-05	1	1.14602e-07	-5.28323e-10
2	1	0	1	0	2.3265	0.0178446	0.017709	0.000207145	1	1.81901e-07	3.66833e-09
2	1	0	1	0	2.7865	0.0408455	0.0406914	0.000532169	1	3.42286e-07	2.16547e-08
2	1	0	1	0	3.2465	0.0638464	0.0637162	0.0010795	1	7.13038e-07	6.87818e-08
2	1	0	1	0	3.7065	0.0868473	0.0866658	0.00136995	1	1.29631e-06	1.18728e-07
2	1	0	1	0	4.1665	0.109848	0.109704	0.0012722	1	1.91374e-06	1.39566e-07
2	1	0	1	0	4.6265	0.132849	0.132677	0.00109992	1	2.45942e-06	1.45934e-07
2	1	0	0	0	5.0867	0.15585	0.155699	0.000970749	1	2.93473e-06	1.51145e-07
2	1	0	0	0	5.5467	0.178851	0.178681	0.000883618	1	3.36134e-06	1.57886e-07
2	1	0	0	0	6.0067	0.201852	0.20166	0.000829796	1	3.75598e-06	1.67336e-07
2	1	0	0	0	6.4667	0.224853	0.224743	0.000792628	1	4.12986e-06	1.78137e-07
2	1	0	0	0	6.9267	0.247854	0.247693	0.000770484	1	4.49027e-06	1.90844e-07
2	1	0	0	0	7.3867	0.270855	0.270697	0.000757086	1	4.84257e-06	2.04941e-07
2	1	0	0	0	7.8467	0.293856	0.29369	0.00075294	1	5.19084e-06	2.21131e-07
2	0	0	1	0	8.2953	0.283705	0.283478	0.000531994	1	5.47249e-06	1.50809e-07
2	0	0	1	0	8.7553	0.260704	0.260473	0.000458019	1	5.69749e-06	1.19302e-07
2	0	0	1	0	9.2153	0.237703	0.237495	0.000413614	1	5.8966e-06	9.82313e-08
2	0	0	1	0	9.6753	0.214702	0.214498	0.000381729	1	6.07821e-06	8.188e-08
2	0	0	1	0	10.1353	0.191702	0.191509	0.000351347	1	6.24575e-06	6.72861e-08
2	0	0	1	0	10.5953	0.168701	0.168486	0.000323484	1	6.40027e-06	5.45025e-08
2	0	0	0	0	11.0555	0.1457	0.145419	0.000292086	1	6.54125e-06	4.24748e-08
2	0	0	0	0	11.5155	0.122699	0.122463	0.000243531	1	6.66403e-06	2.98236e-08
2	0	0	0	0	11.9755	0.0996979	0.0994764	0.000140736	1	6.75482e-06	1.39999e-08
2	0	0	0	0	12.4355	0.0766969	0.0764653	-0.000109552	1	6.76943e-06	-8.37691e-09
2	0	0	0	0	12.8955	0.053696	0.0534489	-0.000606568	1	6.61147e-06	-3.24204e-08
2	0	0	0	0	13.3555	0.0306951	0.0305354	-0.00102391	1	6.21908e-06	-3.12656e-08
2	0	0	0	0	13.8155	0.00769417	0.00747029	-0.000960633	1	5.74736e-06	-7.17621e-09
2	0	0	0	0	14.2755	-0.0153068	-0.0154973	-0.000741379	1	5.35605e-06	1.14894e-08
2	0	0	0	0	14.7355	-0.0383077	-0.0385423	-0.000589029	1	5.05198e-06	2.27026e-08
2	0	0	0	0	15.1955	-0.0613086	-0.0615354	-0.000492208	1	4.80401e-06	3.02882e-08
2	0	0	0	0	15.6555	-0.0843096	-0.0845231	-0.00043035	1	4.59144e-06	3.63746e-08
2	0	0	1	0	16.1157	-0.107311	-0.10756	-0.000389118	1	4.40291e-06	4.18533e-08
2	0	0	1	0	16.5757	-0.130311	-0.130596	-0.000354537	1	4.23165e-06	4.63011e-08
2	0	0	1	0	17.0357	-0.153312	-0.153552	-0.000332051	1	4.07293e-06	5.09871e-08
2	0	0	1	0	17.4957	-0.176313	-0.17654	-0.000315658	1	3.92335e-06	5.57263e-08
2	0	0	1	0	17.9557	-0.199314	-0.199535	-0.000304857	1	3.7799e-06	6.08296e-08
2	1	0	0	1	18.4051	-0.178213	-0.178444	-0.000136601	1	3.70605e-06	2.43755e-08
2	1	0	0	1	18.8651	-0.155212	-0.155458	-0.000106529	1	3.65269e-06	1.65609e-08
2	1	0	0	1	19.3251	-0.132212	-0.132437	-8.23193e-05	1	3.61135e-06	1.09021e-08
2	1	0	0	1	19.7851	-0.109211	-0.109405	-6.65436e-05	1	3.57887e-06	7.28022e-09
2	1	0	1	1	20.2453	-0.0862097	-0.0864377	-5.21475e-05	2	3.55345e-06	4.50751e-09
2	1	0	1	1	20.7053	-0.0632087	-0.063415	-3.73751e-05	2	3.53408e-06	2.37014e-09
2	1	0	1	1	21.1653	-0.0402078	-0.040406	-2.67644e-05	2	3.52054e-06	1.08144e-09
2	1	0	1	1	21.6253	-0.0172068	-0.017414	-3.16177e-06	2	3.51473e-06	5.50592e-11
2	1	0	1	1	22.0853	0.00579409	0.00560765	5.71553e-05	2	3.52598e-06	3.20507e-10
2	1	0	1	1	22.5453	0.028795	0.0285731	0.000243447	2	3.5887e-06	6.95603e-09
2	1	0	1	1	23.0053	0.0517959	0.0516743	0.000671997	2	3.79046e-06	3.4725e-08
2	1	0	1	1	23.4653	0.0747969	0.0746334	0.0011382	2	4.21611e-06	8.49476e-08
2	1	0	1	1	23.9253	0.0977978	0.0976137	0.00124037	2	4.7801e-06	1.21077e-07
2	1	0	1	1	24.3853	0.120799	0.120592	0.00108709	2	5.31994e-06	1.31095e-07
2	1	0	1	1	24.8453	0.1438	0.143646	0.000930746	2	5.78401e-06	1.33698e-07
2	1	0	0	1	25.3055	0.166801	0.16662	0.000819716	2	6.18648e-06	1.36581e-07
2	1	0	0	1	25.7655	0.189801	0.189686	0.00074378	2	6.54647e-06	1.41084e-07
2	1	0	0	1	26.2255	0.212802	0.212595	0.000694247	2	6.87778e-06	1.47593e-07
2	1	0	0	1	26.6855	0.235803	0.235565	0.000658269	2	7.18964e-06	1.55065e-07
2	1	0	0	1	27.1455	0.258804	0.258683	0.000638003	2	7.4887e-06	1.6504e-07
2	1	0	0	1	27.6055	0.281805	0.281624	0.000629319	2	7.78082e-06	1.77231e-07
2	0	0	0	1	28.0551	0.295706	0.295523	0.000499155	2	8.05494e-06	1.47512e-07
2	0	0	0	1	28.5151	0.272705	0.272487	0.000413994	2	8.26082e-06	1.12808e-07
2	0	0	0	1	28.9751	0.249704	0.249465	0.000373538	2	8.43999e-06	9.31846e-08
2	0	0	0	1	29.4351	0.226703	0.226459	0.000341247	2	8.60277e-06	7.72784e-08
2	0	0	0	1	29.8951	0.203702	0.203455	0.000315477	2	8.75286e-06	6.41854e-08
2	0	0	0	1	30.3551	0.180701	0.180471	0.000291637	2	8.89157e-06	5.26321e-08
2	0	0	0	1	30.8151	0.1577	0.157457	0.000264642	2	9.01875e-06	4.16696e-08
2	0	0	1	1	31.2753	0.134699	0.134486	0.000231407	2	9.1323e-06	3.1121e-08
2	0	0	1	1	31.7353	0.111698	0.111487	0.00016729	2	9.22464e-06	1.86506e-08
2	0	0	1	1	32.1953	0.0886974	0.0884861	2.08683e-05	2	9.27231e-06	1.84655e-09
2	0	0	1	1	32.6553	0.0656965	0.0654845	-0.000331579	2	9.21008e-06	-2.17133e-08
2	0	0	1	1	33.1153	0.0426956	0.0424533	-0.000861731	2	8.93428e-06	-3.65834e-08
2	0	0	1	1	33.5753	0.0196946	0.0195366	-0.00106819	2	8.4689e-06	-2.08688e-08
[...]
2	1	0	1	0	39.0849	-0.144212	-0.144387	-0.000115861	2	5.93507e-06	1.67289e-08
2	1	0	1	0	39.5449	-0.121211	-0.121474	-9.4949e-05	2	5.88772e-06	1.15338e-08
2	1	0	0	0	40.0051	-0.0982101	-0.0984425	-7.99399e-05	3	5.8487e-06	7.86949e-09
2	1	0	0	0	40.4651	-0.0752092	-0.075477	-6.61797e-05	3	5.81652e-06	4.99505e-09
2	1	0	0	0	40.9251	-0.0522083	-0.0524416	-4.99536e-05	3	5.79048e-06	2.61965e-09
2	1	0	0	0	41.3851	-0.0292073	-0.0294274	-3.57518e-05	3	5.77118e-06	1.05208e-09
2	1	0	0	0	41.8451	-0.0062064	-0.00644915	1.90846e-07	3	5.76298e-06	-1.2308e-12
2	1	0	0	0	42.3051	0.0167945	0.016616	0.00010414	3	5.78371e-06	1.73038e-09
2	1	0	0	0	42.7651	0.0397955	0.0396758	0.000388459	3	5.8887e-06	1.54124e-08
2	1	0	0	0	43.2251	0.0627964	0.0626286	0.000875193	3	6.17739e-06	5.48121e-08
2	1	0	0	0	43.6851	0.0857973	0.0856004	0.00119653	3	6.67042e-06	1.02423e-07
2	1	0	0	0	44.1451	0.108798	0.1086	0.00115434	3	7.22258e-06	1.25361e-07
2	1	0	0	0	44.6051	0.131799	0.131608	0.000987103	3	7.71611e-06	1.2991e-07
2	1	0	1	0	45.0653	0.1548	0.15464	0.000850069	3	8.13837e-06	1.31455e-07
2	1	0	1	0	45.5253	0.177801	0.177628	0.000757565	3	8.50809e-06	1.34564e-07
2	1	0	1	0	45.9853	0.200802	0.200628	0.000691378	3	8.84195e-06	1.3871e-07
2	1	0	1	0	46.4453	0.223803	0.223595	0.000649103	3	9.15111e-06	1.45136e-07
2	1	0	1	0	46.9053	0.246804	0.246591	0.000616727	3	9.4429e-06	1.52079e-07
2	1	0	1	0	47.3653	0.269805	0.269639	0.000598342	3	9.72304e-06	1.61336e-07
2	1	0	1	0	47.8253	0.292806	0.292706	0.000591131	3	9.99715e-06	1.73028e-07
2	0	0	1	0	48.2749	0.284705	0.284503	0.000419231	3	1.02199e-05	1.19273e-07
2	0	0	1	0	48.7349	0.261704	0.261496	0.000369942	3	1.03994e-05	9.67383e-08
2	0	0	1	0	49.1949	0.238703	0.238487	0.000338622	3	1.05605e-05	8.0757e-08
2	0	0	1	0	49.6549	0.215703	0.21546	0.000310038	3	1.07085e-05	6.68009e-08
2	0	0	1	0	50.1149	0.192702	0.192477	0.000286865	3	1.08451e-05	5.52148e-08
2	0	0	1	0	50.5749	0.169701	0.169484	0.000263357	3	1.09709e-05	4.46348e-08
2	0	0	0	0	51.0351	0.1467	0.146533	0.00023432	3	1.10849e-05	3.43356e-08
2	0	0	0	0	51.4951	0.123699	0.123442	0.000192694	3	1.11831e-05	2.37865e-08
2	0	0	0	0	51.9551	0.100698	0.100513	0.000100962	3	1.12528e-05	1.0148e-08
2	0	0	0	0	52.4151	0.077697	0.0774767	-0.000118306	3	1.12557e-05	-9.16596e-09
2	0	0	0	0	52.8751	0.0546961	0.0545303	-0.000577703	3	1.11031e-05	-3.15023e-08
2	0	0	0	0	53.3351	0.0316951	0.0314471	-0.00102285	3	1.07217e-05	-3.21657e-08
2	0	0	0	0	53.7951	0.00869421	0.00850391	-0.00101489	3	1.02353e-05	-8.63056e-09
2	0	0	0	0	54.2551	-0.0143067	-0.0145008	-0.000807389	3	9.81463e-06	1.17078e-08
2	0	0	0	0	54.7151	-0.0373077	-0.0375818	-0.000647486	3	9.48187e-06	2.43337e-08
2	0	0	0	0	55.1751	-0.0603086	-0.0605452	-0.000547858	3	9.20777e-06	3.31702e-08
2	0	0	0	0	55.6351	-0.0833095	-0.0835563	-0.00048147	3	8.97109e-06	4.02298e-08
2	0	0	1	0	56.0953	-0.10631	-0.106566	-0.000433924	3	8.75989e-06	4.62417e-08
2	0	0	1	0	56.5553	-0.129311	-0.12959	-0.000399915	3	8.5672e-06	5.18251e-08
2	0	0	1	0	57.0153	-0.152312	-0.152542	-0.000373423	3	8.38852e-06	5.69626e-08
2	0	0	1	0	57.4753	-0.175313	-0.17556	-0.000353982	3	8.22038e-06	6.21452e-08
2	0	0	1	0	57.9353	-0.198314	-0.198516	-0.000343057	3	8.0596e-06	6.81024e-08
2	1	0	0	1	58.3847	-0.179213	-0.179402	-0.000170886	3	7.96736e-06	3.06574e-08
2	1	0	0	1	58.8447	-0.156213	-0.156477	-0.000136094	3	7.89815e-06	2.12955e-08
2	1	0	0	1	59.3047	-0.133212	-0.133411	-0.000115151	3	7.84149e-06	1.53624e-08
2	1	0	0	1	59.7647	-0.110211	-0.110457	-9.68514e-05	3	7.79432e-06	1.06979e-08
2	1	0	1	1	60.2249	-0.0872097	-0.087431	-8.13601e-05	3	7.7548e-06	7.1134e-09
2	1	0	0	1	60.6274	-0.0670839	-0.0672536	-7.60786e-05	3	7.72559e-06	5.11656e-09