Folder: automated_analyisis/AutoAnalysis Examples/EC

File: C000A-0ppb-A_C01.mpt
EC-Lab ASCII FILE
Nb header lines : 59

Cyclic Voltammetry

Run on channel : 1 (SN 22398)
User :
CE vs. WE compliance from -10 V to 10 V
Electrode connection : standard
Ewe ctrl range : min = -1.00 V, max = 1.00 V
Safety Limits :
	Ewe min = -2.00 V
	Ewe max = 2.00 V
	|I| = 50.000 mA
	for t > 10 ms
Acquisition started on : 11/21/2018 10:36:13
Technique started on : 11/21/2018 10:36:13
Saved on :
	File : C000A-0ppb-A_C01.mpr
	Directory : \\ECCOMPUTER\Users\Lab User\Google Drive\Electrochemical Data\EC-Lab\Data\FREDsense\Tim\2018.11.21 - EC comparison to High Throughput\
	Host : 172.16.1.30
Device : SP-50 (SN 0301030103010301)
Address : USB
EC-Lab for windows v11.02 (software)
Internet server v11.02 (firmware)
Command interpretor v11.02 (firmware)
Electrode material : Au/Pd
Initial state :
Electrolyte : NaCl (0.2M)
Comments : Fe(CN)63-/Fe(CN)64- 5.10-3 M
Reference electrode : SCE Saturated Calomel Electrode (0.241 V)
Electrode surface area : 0.001 cm²
Characteristic mass : 0.001 g
Equivalent Weight : 0.000 g/eq.
Density : 0.000 g/cm3
Cycle Definition : Charge/Discharge alternance
Ei (V)              -0.100
vs.                 Ref
dE/dt               50.000
dE/dt unit          mV/s
E1 (V)              0.300
vs.                 Ref
Step percent        50
N                   10
E range min (V)     -1.000
E range max (V)     1.000
I Range             Auto
I Range min         Unset
I Range max         Unset
I Range init        Unset
Bandwidth           5
E2 (V)              -0.200
vs.                 Ref
nc cycles           2
Reverse Scan        1
Ef (V)              0.000
vs.                 Eoc

mode	ox/red	error	control changes	counter inc.	time/s	control/V	Ewe/V	<I>/mA	cycle number	(Q-Qo)/C	P/W
2	1	0	1	0	0.000000000000000E+000	-0.0984789	-0.0986253	-7.8141e-05	1	0.0000000E+000	7.70668e-09
2	1	0	1	0	0.4865	-0.0741528	-0.074375	5.19498e-05	1	2.15563e-08	-3.86376e-09
2	1	0	1	0	0.9465	-0.0511517	-0.0513999	6.11721e-05	1	4.89143e-08	-3.14424e-09
2	1	0	1	0	1.4065	-0.0281507	-0.028409	7.19754e-05	1	8.04913e-08	-2.04475e-09
2	1	0	1	0	1.8665	-0.0051496	-0.00541597	9.3672e-05	1	1.18916e-07	-5.07325e-10
2	1	0	1	0	2.3265	0.0178514	0.0176237	0.000164757	1	1.7651e-07	2.90363e-09
2	1	0	1	0	2.7865	0.0408525	0.0406337	0.000369385	1	2.93569e-07	1.50095e-08
2	1	0	1	0	3.2465	0.0638535	0.0636925	0.000694197	1	5.39164e-07	4.42151e-08
2	1	0	1	0	3.7065	0.0868546	0.0866155	0.000855642	1	9.08518e-07	7.41119e-08
2	1	0	1	0	4.1665	0.109856	0.109705	0.000793961	1	1.29396e-06	8.71016e-08
2	1	0	0	0	4.6267	0.132857	0.132628	0.000696278	1	1.63752e-06	9.2346e-08
2	1	0	0	0	5.0867	0.155858	0.155696	0.000627844	1	1.94223e-06	9.77531e-08
2	1	0	0	0	5.5467	0.178859	0.178734	0.000584704	1	2.22174e-06	1.04506e-07
2	1	0	0	0	6.0067	0.20186	0.201676	0.000560333	1	2.48592e-06	1.13006e-07
2	1	0	0	0	6.4667	0.224861	0.224719	0.000548408	1	2.74162e-06	1.23238e-07
2	1	0	0	0	6.9267	0.247862	0.247667	0.0005439	1	2.99366e-06	1.34706e-07
2	1	0	0	0	7.3867	0.270863	0.270703	0.000547607	1	3.24565e-06	1.48239e-07
2	1	0	0	0	7.8467	0.293864	0.293716	0.000556228	1	3.50051e-06	1.63373e-07
2	0	0	1	0	8.2953	0.283714	0.283566	0.000332146	1	3.6934e-06	9.41853e-08
2	0	0	1	0	8.7553	0.260713	0.260472	0.000266247	1	3.82968e-06	6.93499e-08
2	0	0	1	0	9.2153	0.237711	0.237467	0.000227856	1	3.94205e-06	5.41084e-08
2	0	0	1	0	9.6753	0.21471	0.214487	0.000203468	1	4.04043e-06	4.36412e-08
2	0	0	1	0	10.1353	0.191709	0.191496	0.000182467	1	4.12836e-06	3.49417e-08
2	0	0	1	0	10.5953	0.168708	0.168519	0.000163409	1	4.20732e-06	2.75376e-08
2	0	0	1	0	11.0553	0.145707	0.14547	0.000144202	1	4.27686e-06	2.0977e-08
2	0	0	1	0	11.5153	0.122706	0.122426	0.000112124	1	4.33495e-06	1.37269e-08
2	0	0	0	0	11.9755	0.0997052	0.0994243	5.27076e-05	1	4.37364e-06	5.24041e-09
2	0	0	0	0	12.4355	0.0767041	0.0765139	-9.06284e-05	1	4.36864e-06	-6.93434e-09
2	0	0	0	0	12.8955	0.0537031	0.0535135	-0.00038027	1	4.26454e-06	-2.03496e-08
2	0	0	0	0	13.3555	0.030702	0.0305342	-0.00063367	1	4.02143e-06	-1.93486e-08
2	0	0	0	0	13.8155	0.00770099	0.00746382	-0.000608599	1	3.72513e-06	-4.54248e-09
2	0	0	0	0	14.2755	-0.0153001	-0.0155557	-0.000480076	1	3.47406e-06	7.46793e-09
2	0	0	0	0	14.7355	-0.0383011	-0.0384947	-0.000388586	1	3.27475e-06	1.49585e-08
2	0	0	0	0	15.1955	-0.0613022	-0.0615651	-0.000332948	1	3.10852e-06	2.0498e-08
2	0	0	0	0	15.6555	-0.0843032	-0.084537	-0.000298713	1	2.96284e-06	2.52523e-08
2	0	0	1	0	16.1157	-0.107304	-0.107463	-0.000273207	1	2.83082e-06	2.93597e-08
2	0	0	1	0	16.5757	-0.130305	-0.130556	-0.000256767	1	2.70837e-06	3.35224e-08
2	0	0	1	0	17.0357	-0.153306	-0.153607	-0.0002438	1	2.59268e-06	3.74494e-08
2	0	0	1	0	17.4957	-0.176307	-0.176548	-0.000237778	1	2.48129e-06	4.19793e-08
2	0	0	1	0	17.9557	-0.199309	-0.199571	-0.000235305	1	2.37201e-06	4.69601e-08
2	1	0	0	1	18.4051	-0.178208	-0.178409	-6.30108e-05	1	2.33173e-06	1.12417e-08
2	1	0	0	1	18.8651	-0.155206	-0.155454	-3.69688e-05	1	2.31037e-06	5.74695e-09
2	1	0	0	1	19.3251	-0.132205	-0.132421	-2.0831e-05	1	2.29858e-06	2.75846e-09
2	1	0	0	1	19.7851	-0.109204	-0.109392	-7.54773e-06	1	2.29345e-06	8.25659e-10
2	1	0	1	1	20.2353	-0.0867034	-0.0869244	1.99787e-06	2	2.29344e-06	-1.73664e-10
2	1	0	1	1	20.6953	-0.0637023	-0.0639313	9.1606e-06	2	2.29764e-06	-5.8565e-10
2	1	0	1	1	21.1553	-0.0407012	-0.040915	1.9948e-05	2	2.30583e-06	-8.16171e-10
2	1	0	1	1	21.6153	-0.0177002	-0.0179283	3.433e-05	2	2.31907e-06	-6.15478e-10
2	1	0	1	1	22.0753	0.00530088	0.00509445	7.1479e-05	2	2.3432e-06	3.64146e-10
2	1	0	1	1	22.5353	0.0283019	0.0280684	0.000187498	2	2.39949e-06	5.26276e-09
2	1	0	1	1	22.9953	0.051303	0.0511388	0.00044478	2	2.54081e-06	2.27455e-08
2	1	0	1	1	23.4553	0.074304	0.0741562	0.000721101	2	2.81546e-06	5.34742e-08
2	1	0	1	1	23.9153	0.0973051	0.0971472	0.000767858	2	3.16829e-06	7.45952e-08
2	1	0	0	1	24.3755	0.120306	0.120077	0.000675911	2	3.50389e-06	8.11611e-08
2	1	0	0	1	24.8355	0.143307	0.143119	0.000585995	2	3.79476e-06	8.38672e-08
2	1	0	0	1	25.2955	0.166308	0.166157	0.000523848	2	4.05056e-06	8.7041e-08
2	1	0	0	1	25.7555	0.189309	0.189125	0.00048433	2	4.28292e-06	9.15987e-08
2	1	0	0	1	26.2155	0.21231	0.212074	0.000457071	2	4.50015e-06	9.69329e-08
2	1	0	0	1	26.6755	0.235311	0.235112	0.000442972	2	4.70815e-06	1.04148e-07
2	1	0	0	1	27.1355	0.258312	0.258099	0.000436496	2	4.91161e-06	1.12659e-07
2	1	0	0	1	27.5955	0.281313	0.281137	0.000441815	2	5.11512e-06	1.2421e-07
2	0	0	0	1	28.0451	0.296214	0.296074	0.000322258	2	5.30961e-06	9.54122e-08
2	0	0	0	1	28.5051	0.273213	0.273048	0.000241751	2	5.43474e-06	6.60096e-08
2	0	0	0	1	28.9651	0.250212	0.249975	0.000202452	2	5.53567e-06	5.06079e-08
2	0	0	0	1	29.4251	0.227211	0.227024	0.000181012	2	5.6233e-06	4.1094e-08
2	0	0	0	1	29.8851	0.20421	0.203994	0.000164105	2	5.70145e-06	3.34765e-08
2	0	0	0	1	30.3451	0.181209	0.180978	0.000145466	2	5.7716e-06	2.63261e-08
2	0	0	0	1	30.8051	0.158208	0.157985	0.000130533	2	5.83408e-06	2.06222e-08
2	0	0	0	1	31.2651	0.135207	0.134986	0.000105298	2	5.88775e-06	1.42138e-08
2	0	0	1	1	31.7253	0.112206	0.112018	7.12741e-05	2	5.92861e-06	7.98395e-09
2	0	0	1	1	32.1853	0.0892047	0.0890086	-1.14232e-05	2	5.94375e-06	-1.01676e-09
2	0	0	1	1	32.6453	0.0662037	0.0659996	-0.000212686	2	5.89703e-06	-1.40372e-08
2	0	0	1	1	33.1053	0.0432026	0.0430077	-0.000524224	2	5.72744e-06	-2.25457e-08
2	0	0	1	1	33.5653	0.0202016	0.0199987	-0.000670884	2	5.43966e-06	-1.34168e-08
[...]
2	1	0	1	0	39.0749	-0.144706	-0.144905	-4.26284e-05	2	3.7557e-06	6.17705e-09
2	1	0	1	0	39.5349	-0.121705	-0.121898	-2.55844e-05	2	3.74149e-06	3.11869e-09
2	1	0	1	0	39.985	-0.0992018	-0.0994301	-1.49165e-05	3	3.73357e-06	1.48315e-09
2	1	0	0	0	40.4451	-0.0762029	-0.0764663	-3.8754e-06	3	3.73041e-06	2.96337e-10
2	1	0	0	0	40.9051	-0.0532018	-0.0533979	4.3931e-06	3	3.73144e-06	-2.34583e-10
2	1	0	0	0	41.3651	-0.0302008	-0.030389	1.27358e-05	3	3.73686e-06	-3.87028e-10
2	1	0	0	0	41.8251	-0.0071997	-0.00740548	3.75254e-05	3	3.74915e-06	-2.77894e-10
2	1	0	0	0	42.2851	0.0158014	0.0156236	9.90808e-05	3	3.77926e-06	1.548e-09
2	1	0	0	0	42.7451	0.0388024	0.0386527	0.0002699	3	3.86058e-06	1.04324e-08
2	1	0	0	0	43.2051	0.0618034	0.0616627	0.000562638	3	4.0523e-06	3.46938e-08
2	1	0	0	0	43.6651	0.0848045	0.0845921	0.000749342	3	4.36464e-06	6.33884e-08
2	1	0	0	0	44.1251	0.107806	0.107647	0.000717863	3	4.70919e-06	7.72756e-08
2	1	0	1	0	44.5853	0.130807	0.130645	0.00061755	3	5.01783e-06	8.06798e-08
2	1	0	1	0	45.0453	0.153808	0.153609	0.00054007	3	5.2846e-06	8.29599e-08
2	1	0	1	0	45.5053	0.176809	0.17664	0.000488288	3	5.52135e-06	8.6251e-08
2	1	0	1	0	45.9653	0.19981	0.199685	0.000451307	3	5.73799e-06	9.01191e-08
2	1	0	1	0	46.4253	0.222811	0.22259	0.00042822	3	5.9414e-06	9.53174e-08
2	1	0	1	0	46.8853	0.245812	0.245662	0.000416101	3	6.13642e-06	1.0222e-07
2	1	0	1	0	47.3453	0.268813	0.268647	0.000410187	3	6.32723e-06	1.10195e-07
2	1	0	1	0	47.8053	0.291814	0.291584	0.000417717	3	6.51841e-06	1.218e-07
2	0	0	1	0	48.2549	0.285714	0.285538	0.00025139	3	6.6672e-06	7.17813e-08
2	0	0	1	0	48.7149	0.262713	0.262489	0.000206675	3	6.77056e-06	5.42501e-08
2	0	0	1	0	49.1749	0.239712	0.239526	0.000180446	3	6.85841e-06	4.32216e-08
2	0	0	1	0	49.6349	0.21671	0.216485	0.000162009	3	6.93623e-06	3.50725e-08
2	0	0	1	0	50.0949	0.193709	0.193497	0.000144733	3	7.00604e-06	2.80054e-08
2	0	0	1	0	50.5549	0.170708	0.170487	0.000131106	3	7.06853e-06	2.23517e-08
2	0	0	1	0	51.0149	0.147707	0.147519	0.000110425	3	7.12333e-06	1.62897e-08
2	0	0	1	0	51.4749	0.124706	0.124417	8.48666e-05	3	7.16842e-06	1.05588e-08
2	0	0	0	0	51.9351	0.101705	0.101468	3.4897e-05	3	7.19698e-06	3.54094e-09
2	0	0	0	0	52.3951	0.0787042	0.0785685	-8.61736e-05	3	7.18834e-06	-6.77053e-09
2	0	0	0	0	52.8551	0.0557032	0.0555193	-0.000345514	3	7.09311e-06	-1.91827e-08
2	0	0	0	0	53.3151	0.0327021	0.0324753	-0.00062845	3	6.86237e-06	-2.04091e-08
2	0	0	0	0	53.7751	0.00970108	0.00949184	-0.000647949	3	6.55773e-06	-6.15023e-09
2	0	0	0	0	54.2351	-0.0133	-0.0135288	-0.000525759	3	6.28629e-06	7.11287e-09
2	0	0	0	0	54.6951	-0.036301	-0.0365536	-0.00042771	3	6.06758e-06	1.56343e-08
2	0	0	0	0	55.1551	-0.0593021	-0.0595551	-0.000368067	3	5.88435e-06	2.19203e-08
2	0	0	0	0	55.6151	-0.0823032	-0.0825535	-0.000331402	3	5.72337e-06	2.73584e-08
2	0	0	1	0	56.0753	-0.105304	-0.105508	-0.000303414	3	5.5773e-06	3.20127e-08
2	0	0	1	0	56.5353	-0.128305	-0.128497	-0.00028436	3	5.44202e-06	3.65394e-08
2	0	0	1	0	56.9953	-0.151306	-0.151506	-0.000269386	3	5.3146e-06	4.08136e-08
2	0	0	1	0	57.4553	-0.174307	-0.174568	-0.000258312	3	5.19255e-06	4.50931e-08
2	0	0	1	0	57.9153	-0.197308	-0.197514	-0.000256255	3	5.07345e-06	5.0614e-08
2	1	0	0	1	58.3647	-0.180208	-0.180416	-8.40857e-05	3	5.01826e-06	1.51704e-08
2	1	0	0	1	58.8247	-0.157207	-0.157421	-5.61749e-05	3	4.98779e-06	8.84308e-09
2	1	0	0	1	59.2847	-0.134206	-0.134404	-3.92598e-05	3	4.9674e-06	5.27669e-09
2	1	0	0	1	59.7447	-0.111204	-0.111375	-2.44027e-05	3	4.95416e-06	2.71785e-09
2	1	0	1	1	60.2049	-0.0882034	-0.0883471	-1.37089e-05	3	4.94656e-06	1.21114e-09
2	1	0	1	1	60.638	-0.0665274	-0.0668615	-1.61024e-05	3	4.94362e-06	1.07663e-09

File: C000A-0ppb-B_C01.mpt
EC-Lab ASCII FILE
Nb header lines : 59

Cyclic Voltammetry

Run on channel : 1 (SN 22398)
User :
CE vs. WE compliance from -10 V to 10 V
Electrode connection : standard
Ewe ctrl range : min = -1.00 V, max = 1.00 V
Safety Limits :
	Ewe min = -2.00 V
	Ewe max = 2.00 V
	|I| = 50.000 mA
	for t > 10 ms
Acquisition started on : 11/21/2018 11:35:49
Technique started on : 11/21/2018 11:35:49
Saved on :
	File : C000A-0ppb-B_C01.mpr
	Directory : \\ECCOMPUTER\Users\Lab User\Google Drive\Electrochemical Data\EC-Lab\Data\FREDsense\Tim\2018.11.21 - EC comparison to High Throughput\
	Host : 172.16.1.30
Device : SP-50 (SN 0301030103010301)
Address : USB
EC-Lab for windows v11.02 (software)
Internet server v11.02 (firmware)
Command interpretor v11.02 (firmware)
Electrode material : Au/Pd
Initial state :
Electrolyte : NaCl (0.2M)
Comments : Fe(CN)63-/Fe(CN)64- 5.10-3 M
Reference electrode : SCE Saturated Calomel Electrode (0.241 V)
Electrode surface area : 0.001 cm²
Characteristic mass : 0.001 g
Equivalent Weight : 0.000 g/eq.
Density : 0.000 g/cm3
Cycle Definition : Charge/Discharge alternance
Ei (V)              -0.100
vs.                 Ref
dE/dt               50.000
dE/dt unit          mV/s
E1 (V)              0.300
vs.                 Ref
Step percent        50
N                   10
E range min (V)     -1.000
E range max (V)     1.000
I Range             Auto
I Range min         Unset
I Range max         Unset
I Range init        Unset
Bandwidth           5
E2 (V)              -0.200
vs.                 Ref
nc cycles           2
Reverse Scan        1
Ef (V)              0.000
vs.                 Eoc

mode	ox/red	error	control changes	counter inc.	time/s	control/V	Ewe/V	<I>/mA	cycle number	(Q-Qo)/C	P/W
2	1	0	1	0	0.000000000000000E+000	-0.0984851	-0.0987584	-9.14944e-05	1	0.0000000E+000	9.03584e-09
2	1	0	1	0	0.4965	-0.0736591	-0.0738498	3.95585e-05	1	1.21275e-08	-2.92139e-09
2	1	0	1	0	0.9665	-0.0501582	-0.0503341	5.13686e-05	1	3.52313e-08	-2.58559e-09
2	1	0	1	0	1.4365	-0.0266572	-0.0268671	6.19652e-05	1	6.28758e-08	-1.66483e-09
2	1	0	1	0	1.9065	-0.00315627	-0.00340553	8.66082e-05	1	9.78714e-08	-2.94947e-10
2	1	0	1	0	2.3765	0.0203447	0.0201557	0.000166373	1	1.55027e-07	3.35338e-09
2	1	0	1	0	2.8465	0.0438456	0.0436757	0.000389973	1	2.80334e-07	1.70323e-08
2	1	0	1	0	3.3165	0.0673466	0.0672168	0.000722613	1	5.44322e-07	4.85717e-08
2	1	0	1	0	3.7865	0.0908475	0.0906911	0.000875421	1	9.32381e-07	7.93929e-08
2	1	0	1	0	4.2565	0.114348	0.114177	0.000819013	1	1.33596e-06	9.35125e-08
2	1	0	1	0	4.7265	0.137849	0.13766	0.000720919	1	1.69792e-06	9.92417e-08
2	1	0	0	0	5.1967	0.16135	0.161214	0.000647962	1	2.01954e-06	1.0446e-07
2	1	0	0	0	5.6667	0.184851	0.184662	0.000600778	1	2.31356e-06	1.10941e-07
2	1	0	0	0	6.1367	0.208352	0.208201	0.000572719	1	2.59051e-06	1.1924e-07
2	1	0	0	0	6.6067	0.231853	0.231657	0.000559222	1	2.85767e-06	1.29548e-07
2	1	0	0	0	7.0767	0.255354	0.25518	0.000552742	1	3.12007e-06	1.41049e-07
2	1	0	0	0	7.5467	0.278855	0.278655	0.00055427	1	3.38152e-06	1.5445e-07
2	0	0	1	0	8.0053	0.298206	0.298063	0.000449952	1	3.63504e-06	1.34114e-07
2	0	0	1	0	8.4753	0.274705	0.274528	0.000328426	1	3.81035e-06	9.01623e-08
2	0	0	1	0	8.9453	0.251204	0.25097	0.000277287	1	3.95009e-06	6.95908e-08
2	0	0	1	0	9.4153	0.227703	0.227503	0.000244328	1	4.07127e-06	5.55854e-08
2	0	0	1	0	9.8853	0.204202	0.204012	0.000222898	1	4.18133e-06	4.54739e-08
2	0	0	1	0	10.3553	0.180701	0.180501	0.000199356	1	4.27887e-06	3.59838e-08
2	0	0	1	0	10.8253	0.1572	0.156985	0.000177809	1	4.36651e-06	2.79133e-08
2	0	0	0	0	11.2955	0.133699	0.13348	0.00014901	1	4.44276e-06	1.98898e-08
2	0	0	0	0	11.7655	0.110198	0.109991	0.000102179	1	4.50245e-06	1.12387e-08
2	0	0	0	0	12.2355	0.0866973	0.0865195	2.89696e-06	1	4.52995e-06	2.50644e-10
2	0	0	0	0	12.7055	0.0631964	0.0630155	-0.000222352	1	4.48377e-06	-1.40116e-08
2	0	0	0	0	13.1755	0.0396955	0.039485	-0.000544202	1	4.30141e-06	-2.14878e-08
2	0	0	0	0	13.6455	0.0161945	0.0159513	-0.000662204	1	4.00427e-06	-1.0563e-08
2	0	0	0	0	14.1155	-0.00730644	-0.00753365	-0.000555735	1	3.71351e-06	4.18671e-09
2	0	0	0	0	14.5855	-0.0308074	-0.0310292	-0.000438517	1	3.48056e-06	1.36068e-08
2	0	0	0	0	15.0555	-0.0543084	-0.0546085	-0.000362441	1	3.29245e-06	1.97924e-08
2	0	0	0	0	15.5255	-0.0778093	-0.0780818	-0.000317478	1	3.13235e-06	2.47892e-08
2	0	0	1	0	15.9957	-0.10131	-0.101523	-0.000285819	1	2.99014e-06	2.90172e-08
2	0	0	1	0	16.4657	-0.124811	-0.125019	-0.0002629	1	2.86023e-06	3.28674e-08
2	0	0	1	0	16.9357	-0.148312	-0.148488	-0.000248382	1	2.73893e-06	3.68817e-08
2	0	0	1	0	17.4057	-0.171813	-0.172063	-0.000238084	1	2.62347e-06	4.09654e-08
2	0	0	1	0	17.8757	-0.195314	-0.195588	-0.000234288	1	2.51133e-06	4.58239e-08
2	1	0	0	1	18.3351	-0.181714	-0.181888	-8.1482e-05	1	2.45161e-06	1.48206e-08
2	1	0	0	1	18.8051	-0.158213	-0.158402	-5.20344e-05	1	2.42167e-06	8.24236e-09
2	1	0	0	1	19.2751	-0.134712	-0.13492	-3.45542e-05	1	2.40262e-06	4.66206e-09
2	1	0	0	1	19.7451	-0.111211	-0.111431	-2.19121e-05	1	2.39101e-06	2.44169e-09
2	1	0	1	1	20.2153	-0.0877097	-0.0878869	-9.87408e-06	2	2.38516e-06	8.67802e-10
2	1	0	1	1	20.6853	-0.0642088	-0.0644009	1.29022e-07	2	2.38401e-06	-8.30915e-12
2	1	0	1	1	21.1553	-0.0407078	-0.0409605	9.98021e-06	2	2.38727e-06	-4.08794e-10
2	1	0	1	1	21.6253	-0.0172068	-0.0173896	2.38199e-05	2	2.39628e-06	-4.1422e-10
2	1	0	1	1	22.0953	0.00629411	0.00612393	6.70931e-05	2	2.4177e-06	4.10874e-10
2	1	0	1	1	22.5653	0.0297951	0.0295718	0.000191622	2	2.4751e-06	5.66661e-09
2	1	0	1	1	23.0353	0.053296	0.0531277	0.000460551	2	2.62469e-06	2.4468e-08
2	1	0	1	1	23.5053	0.0767969	0.0766211	0.000740729	2	2.91412e-06	5.67555e-08
2	1	0	1	1	23.9753	0.100298	0.100112	0.000797348	2	3.28614e-06	7.98244e-08
2	1	0	1	1	24.4453	0.123799	0.123649	0.000709383	2	3.64399e-06	8.77147e-08
2	1	0	1	1	24.9154	0.147299	0.14709	0.000616598	2	3.9565e-06	9.06951e-08
2	1	0	0	1	25.3855	0.170801	0.170645	0.000550552	2	4.23131e-06	9.39487e-08
2	1	0	0	1	25.8555	0.194302	0.194074	0.000505709	2	4.48031e-06	9.81451e-08
2	1	0	0	1	26.3255	0.217803	0.217665	0.000476772	2	4.71244e-06	1.03777e-07
2	1	0	0	1	26.7955	0.241304	0.241141	0.000460607	2	4.93409e-06	1.11071e-07
2	1	0	0	1	27.2655	0.264805	0.264635	0.000454799	2	5.15049e-06	1.20356e-07
2	1	0	0	1	27.7355	0.288305	0.288187	0.000461225	2	5.36662e-06	1.32919e-07
2	0	0	0	1	28.1951	0.288705	0.288508	0.000310759	2	5.55194e-06	8.96564e-08
2	0	0	0	1	28.6651	0.265205	0.265013	0.000255066	2	5.68258e-06	6.75957e-08
2	0	0	0	1	29.1351	0.241704	0.241518	0.000224968	2	5.7938e-06	5.43339e-08
2	0	0	0	1	29.6051	0.218203	0.217964	0.000201657	2	5.89276e-06	4.39541e-08
2	0	0	0	1	30.0751	0.194702	0.19449	0.000183477	2	5.98218e-06	3.56845e-08
2	0	0	0	1	30.5451	0.171201	0.171023	0.000164278	2	6.06297e-06	2.80954e-08
2	0	0	0	1	31.0151	0.1477	0.147505	0.000143308	2	6.13466e-06	2.11387e-08
2	0	0	1	1	31.4853	0.124199	0.123961	0.000114708	2	6.19476e-06	1.42193e-08
2	0	0	1	1	31.9553	0.100698	0.100488	5.5933e-05	2	6.23532e-06	5.62058e-09
2	0	0	1	1	32.4253	0.077197	0.0769614	-8.11641e-05	2	6.23336e-06	-6.2465e-09
2	0	0	1	1	32.8953	0.053696	0.0535051	-0.000355568	2	6.13552e-06	-1.90247e-08
2	0	0	1	1	33.3653	0.0301951	0.029982	-0.000638577	2	5.89362e-06	-1.91458e-08
2	0	0	1	1	33.8353	0.00669413	0.00645575	-0.000653515	2	5.57779e-06	-4.21893e-09
2	0	0	1	1	34.3053	-0.0168068	-0.0170589	-0.000527257	2	5.29804e-06	8.99441e-09
[...]
2	1	0	1	0	38.9949	-0.148712	-0.148889	-5.73e-05	2	4.0159e-06	8.53132e-09
2	1	0	1	0	39.4649	-0.125211	-0.12543	-4.03356e-05	2	3.99439e-06	5.0593e-09
2	1	0	1	0	39.9349	-0.10171	-0.101948	-2.85202e-05	2	3.9798e-06	2.90758e-09
2	1	0	0	0	40.4051	-0.0782093	-0.0783807	-1.84323e-05	3	3.9707e-06	1.44473e-09
2	1	0	0	0	40.8751	-0.0547084	-0.0548714	-7.37993e-06	3	3.9663e-06	4.04947e-10
2	1	0	0	0	41.3451	-0.0312074	-0.031431	5.47237e-06	3	3.96678e-06	-1.72002e-10
2	1	0	0	0	41.8151	-0.00770646	-0.00790788	2.79604e-05	3	3.97486e-06	-2.21107e-10
2	1	0	0	0	42.2851	0.0157945	0.0156078	9.39193e-05	3	4.00203e-06	1.46587e-09
2	1	0	0	0	42.7551	0.0392954	0.0391489	0.000268996	3	4.08295e-06	1.05309e-08
2	1	0	0	0	43.2251	0.0627964	0.0626275	0.000566573	3	4.27889e-06	3.54831e-08
2	1	0	0	0	43.6951	0.0862973	0.0861093	0.000771618	3	4.60365e-06	6.64435e-08
2	1	0	0	0	44.1651	0.109798	0.109639	0.000754931	3	4.97031e-06	8.27697e-08
2	1	0	0	0	44.6351	0.133299	0.133116	0.000656322	3	5.30394e-06	8.73671e-08
2	1	0	1	0	45.1053	0.1568	0.156633	0.000572687	3	5.59344e-06	8.97016e-08
2	1	0	1	0	45.5753	0.180301	0.180127	0.000514383	3	5.84952e-06	9.26546e-08
2	1	0	1	0	46.0453	0.203802	0.203581	0.000476724	3	6.08296e-06	9.70517e-08
2	1	0	1	0	46.5153	0.227303	0.227162	0.000449836	3	6.30137e-06	1.02186e-07
2	1	0	1	0	46.9853	0.250804	0.250645	0.000432578	3	6.51009e-06	1.08423e-07
2	1	0	1	0	47.4553	0.274305	0.274124	0.000428957	3	6.71387e-06	1.17588e-07
2	1	0	1	0	47.9253	0.297806	0.297615	0.000434477	3	6.91764e-06	1.29307e-07
2	0	0	1	0	48.3849	0.279205	0.278996	0.000263689	3	7.0596e-06	7.35682e-08
2	0	0	1	0	48.8549	0.255704	0.2555	0.000227611	3	7.17359e-06	5.81546e-08
2	0	0	1	0	49.3249	0.232203	0.231995	0.000203208	3	7.27355e-06	4.71433e-08
2	0	0	1	0	49.7949	0.208702	0.20851	0.000183898	3	7.36349e-06	3.83446e-08
2	0	0	1	0	50.2649	0.185201	0.184987	0.000166536	3	7.445e-06	3.0807e-08
2	0	0	1	0	50.7349	0.1617	0.161531	0.000148741	3	7.51823e-06	2.40263e-08
2	0	0	0	0	51.2051	0.138199	0.137919	0.000126289	3	7.58199e-06	1.74175e-08
2	0	0	0	0	51.6751	0.114698	0.114467	9.09094e-05	3	7.6323e-06	1.04061e-08
2	0	0	0	0	52.1451	0.0911975	0.0910505	1.03264e-05	3	7.65712e-06	9.40226e-10
2	0	0	0	0	52.6151	0.0676966	0.0674924	-0.000174197	3	7.62331e-06	-1.17569e-08
2	0	0	0	0	53.0851	0.0441956	0.0439895	-0.000484814	3	7.46985e-06	-2.13267e-08
2	0	0	0	0	53.5551	0.0206947	0.0204801	-0.000681846	3	7.18342e-06	-1.39643e-08
2	0	0	0	0	54.0251	-0.00280626	-0.00306205	-0.000612387	3	6.87128e-06	1.87516e-09
2	0	0	0	0	54.4951	-0.0263072	-0.02653	-0.000490408	3	6.61172e-06	1.30105e-08
2	0	0	0	0	54.9651	-0.0498082	-0.0500288	-0.000406494	3	6.40165e-06	2.03364e-08
2	0	0	0	0	55.4351	-0.0733091	-0.073519	-0.000352974	3	6.22314e-06	2.59503e-08
2	0	0	0	0	55.9051	-0.0968101	-0.0970315	-0.000317091	3	6.065e-06	3.07678e-08
2	0	0	1	0	56.3753	-0.120311	-0.120562	-0.000291621	3	5.92085e-06	3.51585e-08
2	0	0	1	0	56.8453	-0.143812	-0.144027	-0.000274595	3	5.78691e-06	3.95491e-08
2	0	0	1	0	57.3153	-0.167313	-0.167557	-0.000263553	3	5.66027e-06	4.41603e-08
2	0	0	1	0	57.7853	-0.190814	-0.191071	-0.00025358	3	5.53831e-06	4.84518e-08
2	1	0	0	1	58.2447	-0.186214	-0.18645	-0.0001073	3	5.4569e-06	2.0006e-08
2	1	0	0	1	58.7147	-0.162713	-0.16291	-7.46831e-05	3	5.41624e-06	1.21666e-08
2	1	0	0	1	59.1847	-0.139212	-0.139355	-5.45144e-05	3	5.38753e-06	7.59685e-09
2	1	0	0	1	59.6547	-0.115711	-0.115887	-3.97332e-05	3	5.36698e-06	4.60456e-09
2	1	0	1	1	60.1249	-0.0922099	-0.0924083	-2.77376e-05	3	5.35277e-06	2.56319e-09
2	1	0	1	1	60.5949	-0.0687089	-0.0689329	-1.65811e-05	3	5.34373e-06	1.14298e-09
2	1	0	0	1	60.971	-0.0498832	-0.0503659	-1.32825e-06	3	5.33985e-06	6.68987e-11