Folder: automated_analyisis/AutoAnalysis Examples/EC (part 4)

File: C000A-20ppb-A_C01.mpt
EC-Lab ASCII FILE
Nb header lines : 59

Cyclic Voltammetry

Run on channel : 1 (SN 22398)
User :
CE vs. WE compliance from -10 V to 10 V
Electrode connection : standard
Ewe ctrl range : min = -1.00 V, max = 1.00 V
Safety Limits :
	Ewe min = -2.00 V
	Ewe max = 2.00 V
	|I| = 50.000 mA
	for t > 10 ms
Acquisition started on : 11/21/2018 10:44:14
Technique started on : 11/21/2018 10:44:14
Saved on :
	File : C000A-20ppb-A_C01.mpr
	Directory : \\ECCOMPUTER\Users\Lab User\Google Drive\Electrochemical Data\EC-Lab\Data\FREDsense\Tim\2018.11.21 - EC comparison to High Throughput\
	Host : 172.16.1.30
Device : SP-50 (SN 0301030103010301)
Address : USB
EC-Lab for windows v11.02 (software)
Internet server v11.02 (firmware)
Command interpretor v11.02 (firmware)
Electrode material : Au/Pd
Initial state :
Electrolyte : NaCl (0.2M)
Comments : Fe(CN)63-/Fe(CN)64- 5.10-3 M
Reference electrode : SCE Saturated Calomel Electrode (0.241 V)
Electrode surface area : 0.001 cm²
Characteristic mass : 0.001 g
Equivalent Weight : 0.000 g/eq.
Density : 0.000 g/cm3
Cycle Definition : Charge/Discharge alternance
Ei (V)              -0.100
vs.                 Ref
dE/dt               50.000
dE/dt unit          mV/s
E1 (V)              0.300
vs.                 Ref
Step percent        50
N                   10
E range min (V)     -1.000
E range max (V)     1.000
I Range             Auto
I Range min         Unset
I Range max         Unset
I Range init        Unset
Bandwidth           5
E2 (V)              -0.200
vs.                 Ref
nc cycles           2
Reverse Scan        1
Ef (V)              0.000
vs.                 Eoc

mode	ox/red	error	control changes	counter inc.	time/s	control/V	Ewe/V	<I>/mA	cycle number	(Q-Qo)/C	P/W
2	1	0	1	0	0.000000000000000E+000	-0.0984998	-0.0986864	-8.64074e-05	1	0.0000000E+000	8.52724e-09
2	1	0	1	0	0.4965	-0.0736739	-0.0737565	4.51756e-05	1	1.59978e-08	-3.332e-09
2	1	0	1	0	0.9665	-0.0501731	-0.0502239	5.66961e-05	1	4.14945e-08	-2.8475e-09
2	1	0	1	0	1.4365	-0.0266722	-0.0267135	6.91492e-05	1	7.14436e-08	-1.84721e-09
2	1	0	1	0	1.9065	-0.00317132	-0.00322641	9.19516e-05	1	1.0906e-07	-2.96673e-10
2	1	0	1	0	2.3765	0.0203295	0.0202585	0.000170447	1	1.68746e-07	3.453e-09
2	1	0	1	0	2.8465	0.0438304	0.0437795	0.000399746	1	2.96776e-07	1.75007e-08
2	1	0	1	0	3.3165	0.0673313	0.0672337	0.0007318	1	5.65121e-07	4.92016e-08
2	1	0	1	0	3.7865	0.0908321	0.0906942	0.000868454	1	9.54284e-07	7.87638e-08
2	1	0	1	0	4.2565	0.114333	0.114282	0.000795509	1	1.35014e-06	9.09124e-08
2	1	0	1	0	4.7265	0.137834	0.137672	0.000696536	1	1.70105e-06	9.58932e-08
2	1	0	1	0	5.1965	0.161335	0.161361	0.000630642	1	2.01306e-06	1.01761e-07
2	1	0	0	0	5.6667	0.184836	0.184774	0.000587816	1	2.29988e-06	1.08613e-07
2	1	0	0	0	6.1367	0.208336	0.20824	0.000565374	1	2.57127e-06	1.17733e-07
2	1	0	0	0	6.6067	0.231837	0.231794	0.000550103	1	2.83418e-06	1.2751e-07
2	1	0	0	0	7.0767	0.255338	0.255216	0.000548651	1	3.09329e-06	1.40025e-07
2	1	0	0	0	7.5467	0.278839	0.278712	0.000550679	1	3.35383e-06	1.53481e-07
2	0	0	1	0	7.9961	0.29869	0.298522	0.000450664	1	3.60104e-06	1.34533e-07
2	0	0	1	0	8.4661	0.275189	0.275029	0.000316849	1	3.77258e-06	8.71426e-08
2	0	0	1	0	8.9361	0.251688	0.251589	0.000265461	1	3.90676e-06	6.67872e-08
2	0	0	1	0	9.4061	0.228187	0.228	0.000231493	1	4.02182e-06	5.27806e-08
2	0	0	1	0	9.8761	0.204686	0.204597	0.000206248	1	4.12384e-06	4.21978e-08
2	0	0	1	0	10.3461	0.181185	0.181066	0.000187959	1	4.21546e-06	3.40329e-08
2	0	0	0	0	10.8163	0.157685	0.157571	0.000165633	1	4.29742e-06	2.6099e-08
2	0	0	0	0	11.2863	0.134184	0.134061	0.000138973	1	4.36835e-06	1.86308e-08
2	0	0	0	0	11.7563	0.110683	0.110563	9.43327e-05	1	4.4237e-06	1.04297e-08
2	0	0	0	0	12.2263	0.087182	0.0870146	-3.29955e-06	1	4.44793e-06	-2.87109e-10
2	0	0	0	0	12.6963	0.0636811	0.0635243	-0.000227648	1	4.39878e-06	-1.44612e-08
2	0	0	0	0	13.1663	0.0401803	0.0401136	-0.000549778	1	4.2131e-06	-2.20536e-08
2	0	0	0	0	13.6363	0.0166794	0.0165545	-0.000652114	1	3.91718e-06	-1.07954e-08
2	0	0	0	0	14.1063	-0.00682146	-0.00689338	-0.000537435	1	3.63413e-06	3.70474e-09
2	0	0	0	0	14.5763	-0.0303223	-0.0305108	-0.000425228	1	3.40894e-06	1.29741e-08
2	0	0	0	0	15.0463	-0.0538232	-0.0539852	-0.000353473	1	3.22627e-06	1.90823e-08
2	0	0	0	0	15.5163	-0.0773241	-0.0774373	-0.000310352	1	3.06979e-06	2.40328e-08
2	0	0	1	0	15.9865	-0.100825	-0.100907	-0.000281987	1	2.93009e-06	2.84546e-08
2	0	0	1	0	16.4565	-0.124326	-0.12446	-0.000261439	1	2.80204e-06	3.25387e-08
2	0	0	1	0	16.9265	-0.147827	-0.147921	-0.000245119	1	2.68221e-06	3.62582e-08
2	0	0	1	0	17.3965	-0.171328	-0.171411	-0.000236165	1	2.56793e-06	4.04813e-08
2	0	0	1	0	17.8665	-0.194828	-0.194935	-0.000231786	1	2.45684e-06	4.51833e-08
2	1	0	0	1	18.3259	-0.182228	-0.182322	-7.95195e-05	1	2.39754e-06	1.44981e-08
2	1	0	0	1	18.7959	-0.158727	-0.158787	-5.01603e-05	1	2.36941e-06	7.9648e-09
2	1	0	0	1	19.2659	-0.135226	-0.135311	-3.11697e-05	1	2.35199e-06	4.2176e-09
2	1	0	0	1	19.7359	-0.111725	-0.111832	-1.8918e-05	1	2.34193e-06	2.11564e-09
2	1	0	1	1	20.2061	-0.0882245	-0.0882569	-7.97874e-06	2	2.33752e-06	7.04178e-10
2	1	0	1	1	20.6761	-0.0647236	-0.0648419	3.67065e-06	2	2.33774e-06	-2.38012e-10
2	1	0	1	1	21.1461	-0.0412227	-0.0412743	1.08351e-05	2	2.34228e-06	-4.47213e-10
2	1	0	1	1	21.6161	-0.0177219	-0.0178031	2.56799e-05	2	2.35222e-06	-4.57183e-10
2	1	0	1	1	22.0861	0.00577901	0.00571256	6.54839e-05	2	2.37366e-06	3.74081e-10
2	1	0	1	1	22.5561	0.0292799	0.0292611	0.000184611	2	2.42908e-06	5.40193e-09
2	1	0	1	1	23.0261	0.0527807	0.0527545	0.000451118	2	2.57417e-06	2.37985e-08
2	1	0	1	1	23.4961	0.0762816	0.076266	0.000728384	2	2.85825e-06	5.55509e-08
2	1	0	1	1	23.9661	0.0997824	0.0996629	0.000772864	2	3.222e-06	7.70258e-08
2	1	0	1	1	24.4361	0.123283	0.123245	0.000681276	2	3.56705e-06	8.39641e-08
2	1	0	1	1	24.9061	0.146784	0.146656	0.000591206	2	3.8661e-06	8.67039e-08
2	1	0	1	1	25.3761	0.170285	0.170181	0.000527942	2	4.12911e-06	8.98459e-08
2	1	0	0	1	25.8463	0.193786	0.193708	0.000486481	2	4.36812e-06	9.42351e-08
2	1	0	0	1	26.3163	0.217287	0.217201	0.000458871	2	4.59151e-06	9.96672e-08
2	1	0	0	1	26.7863	0.240788	0.240641	0.000447668	2	4.80552e-06	1.07728e-07
2	1	0	0	1	27.2563	0.264288	0.264204	0.000441537	2	5.01509e-06	1.16656e-07
2	1	0	0	1	27.7263	0.287789	0.287732	0.000449048	2	5.22512e-06	1.29206e-07
2	0	0	0	1	28.1767	0.289689	0.289606	0.000300167	2	5.40327e-06	8.69304e-08
2	0	0	0	1	28.6467	0.266189	0.266072	0.000241458	2	5.52746e-06	6.4245e-08
2	0	0	0	1	29.1167	0.242688	0.242566	0.000210044	2	5.6316e-06	5.09494e-08
2	0	0	0	1	29.5867	0.219187	0.219086	0.000187533	2	5.72341e-06	4.10858e-08
2	0	0	0	1	30.0567	0.195686	0.195513	0.000168484	2	5.80581e-06	3.29409e-08
2	0	0	0	1	30.5268	0.172184	0.17207	0.000150746	2	5.87992e-06	2.59388e-08
2	0	0	1	1	30.9969	0.148684	0.148546	0.000129537	2	5.94539e-06	1.92422e-08
2	0	0	1	1	31.4669	0.125183	0.125031	0.00010335	2	6.00006e-06	1.29219e-08
2	0	0	1	1	31.9369	0.101683	0.101563	5.10807e-05	2	6.03658e-06	5.18789e-09
2	0	0	1	1	32.4069	0.0781817	0.0780512	-8.16092e-05	2	6.03252e-06	-6.3697e-09
2	0	0	1	1	32.8769	0.0546808	0.0546235	-0.000356303	2	5.93454e-06	-1.94625e-08
2	0	0	1	1	33.3469	0.0311799	0.0310262	-0.000633431	2	5.69426e-06	-1.9653e-08
2	0	0	1	1	33.8169	0.00767908	0.00754976	-0.000637921	2	5.38389e-06	-4.81615e-09
2	0	0	1	1	34.2869	-0.0158218	-0.0159362	-0.000511682	2	5.11189e-06	8.1543e-09
[...]
2	1	0	1	0	38.9765	-0.149727	-0.149782	-5.27445e-05	2	3.85005e-06	7.90019e-09
2	1	0	1	0	39.4465	-0.126226	-0.126275	-3.77178e-05	2	3.82995e-06	4.76282e-09
2	1	0	1	0	39.9165	-0.102725	-0.102811	-2.33905e-05	2	3.81671e-06	2.40481e-09
2	1	0	0	0	40.3867	-0.0792241	-0.0793179	-1.39227e-05	3	3.8089e-06	1.10432e-09
2	1	0	0	0	40.8567	-0.0557233	-0.0557842	-7.18562e-06	3	3.8057e-06	4.00844e-10
2	1	0	0	0	41.3267	-0.0322224	-0.0323268	6.49158e-06	3	3.80713e-06	-2.09852e-10
2	1	0	0	0	41.7967	-0.00872153	-0.00880584	2.77449e-05	3	3.81551e-06	-2.44317e-10
2	1	0	0	0	42.2667	0.0147793	0.0147332	8.77564e-05	3	3.84134e-06	1.29293e-09
2	1	0	0	0	42.7367	0.0382802	0.0381842	0.000255159	3	3.91738e-06	9.74305e-09
2	1	0	0	0	43.2067	0.0617811	0.0617062	0.000544947	3	4.10504e-06	3.36266e-08
2	1	0	0	0	43.6767	0.0852819	0.0852728	0.00075013	3	4.42086e-06	6.39657e-08
2	1	0	0	0	44.1467	0.108783	0.108746	0.000729163	3	4.77645e-06	7.92936e-08
2	1	0	0	0	44.6167	0.132284	0.132245	0.000627703	3	5.0968e-06	8.30104e-08
2	1	0	0	0	45.0867	0.155784	0.155677	0.000547201	3	5.3735e-06	8.51865e-08
2	1	0	1	0	45.5569	0.179285	0.179166	0.000492989	3	5.61862e-06	8.83268e-08
2	1	0	1	0	46.0269	0.202786	0.202704	0.000455432	3	5.84242e-06	9.23177e-08
2	1	0	1	0	46.4969	0.226287	0.226136	0.000433719	3	6.05231e-06	9.80794e-08
2	1	0	1	0	46.9669	0.249788	0.249648	0.000417952	3	6.25334e-06	1.04341e-07
2	1	0	1	0	47.4369	0.273289	0.273199	0.000412959	3	6.45006e-06	1.1282e-07
2	1	0	1	0	47.9069	0.29679	0.296716	0.000419879	3	6.64735e-06	1.24585e-07
2	0	0	1	0	48.3573	0.280689	0.280522	0.000250427	3	6.78318e-06	7.02504e-08
2	0	0	1	0	48.8273	0.257188	0.257069	0.00021245	3	6.89024e-06	5.46143e-08
2	0	0	1	0	49.2973	0.233687	0.233571	0.000188565	3	6.98295e-06	4.40433e-08
2	0	0	1	0	49.7673	0.210187	0.210028	0.000168438	3	7.06573e-06	3.53768e-08
2	0	0	1	0	50.2373	0.186686	0.186541	0.000152142	3	7.14027e-06	2.83807e-08
2	0	0	0	0	50.7075	0.163185	0.163046	0.000135361	3	7.20697e-06	2.207e-08
2	0	0	0	0	51.1775	0.139684	0.139542	0.000113442	3	7.26485e-06	1.58298e-08
2	0	0	0	0	51.6475	0.116183	0.116029	8.15086e-05	3	7.31042e-06	9.45738e-09
2	0	0	0	0	52.1175	0.0926822	0.0925919	6.43859e-06	3	7.33255e-06	5.96161e-10
2	0	0	0	0	52.5875	0.0691813	0.0691207	-0.000168657	3	7.29935e-06	-1.16577e-08
2	0	0	0	0	53.0575	0.0456805	0.0456125	-0.000474975	3	7.1499e-06	-2.16648e-08
2	0	0	0	0	53.5275	0.0221796	0.0220819	-0.000667994	3	6.86889e-06	-1.47506e-08
2	0	0	0	0	53.9975	-0.00132125	-0.00140511	-0.000599057	3	6.56338e-06	8.41742e-10
2	0	0	0	0	54.4675	-0.0248221	-0.0248954	-0.00048071	3	6.31012e-06	1.19675e-08
2	0	0	0	0	54.9375	-0.048323	-0.048428	-0.00039884	3	6.10466e-06	1.9315e-08
2	0	0	0	0	55.4075	-0.0718239	-0.0720221	-0.000346913	3	5.92932e-06	2.49854e-08
2	0	0	0	0	55.8775	-0.0953247	-0.0954488	-0.000314376	3	5.77339e-06	3.00068e-08
2	0	0	1	0	56.3477	-0.118826	-0.118961	-0.000288744	3	5.63088e-06	3.43493e-08
2	0	0	1	0	56.8177	-0.142326	-0.142427	-0.000271285	3	5.49822e-06	3.86383e-08
2	0	0	1	0	57.2877	-0.165827	-0.165967	-0.000260104	3	5.37258e-06	4.31687e-08
2	0	0	1	0	57.7577	-0.189328	-0.189414	-0.000251593	3	5.25137e-06	4.76552e-08
2	1	0	0	1	58.2171	-0.187728	-0.187773	-0.000105524	3	5.16704e-06	1.98146e-08
2	1	0	0	1	58.6871	-0.164227	-0.164299	-7.34961e-05	3	5.12765e-06	1.20753e-08
2	1	0	0	1	59.1571	-0.140726	-0.140751	-5.14303e-05	3	5.10035e-06	7.23887e-09
2	1	0	0	1	59.6271	-0.117226	-0.117283	-3.68187e-05	3	5.08119e-06	4.31821e-09
2	1	0	1	1	60.0973	-0.0937247	-0.0937865	-2.57663e-05	3	5.0683e-06	2.41654e-09
2	1	0	1	1	60.5673	-0.0702238	-0.0703249	-1.53411e-05	3	5.06053e-06	1.07886e-09
2	1	0	1	1	60.7784	-0.0596484	-0.059854	-1.2004e-07	3	5.05848e-06	7.18487e-12

File: C000A-20ppb-B_C01.mpt
EC-Lab ASCII FILE
Nb header lines : 59

Cyclic Voltammetry

Run on channel : 1 (SN 22398)
User :
CE vs. WE compliance from -10 V to 10 V
Electrode connection : standard
Ewe ctrl range : min = -1.00 V, max = 1.00 V
Safety Limits :
	Ewe min = -2.00 V
	Ewe max = 2.00 V
	|I| = 50.000 mA
	for t > 10 ms
Acquisition started on : 11/21/2018 11:45:13
Technique started on : 11/21/2018 11:45:13
Saved on :
	File : C000A-20ppb-B_C01.mpr
	Directory : \\ECCOMPUTER\Users\Lab User\Google Drive\Electrochemical Data\EC-Lab\Data\FREDsense\Tim\2018.11.21 - EC comparison to High Throughput\
	Host : 172.16.1.30
Device : SP-50 (SN 0301030103010301)
Address : USB
EC-Lab for windows v11.02 (software)
Internet server v11.02 (firmware)
Command interpretor v11.02 (firmware)
Electrode material : Au/Pd
Initial state :
Electrolyte : NaCl (0.2M)
Comments : Fe(CN)63-/Fe(CN)64- 5.10-3 M
Reference electrode : SCE Saturated Calomel Electrode (0.241 V)
Electrode surface area : 0.001 cm²
Characteristic mass : 0.001 g
Equivalent Weight : 0.000 g/eq.
Density : 0.000 g/cm3
Cycle Definition : Charge/Discharge alternance
Ei (V)              -0.100
vs.                 Ref
dE/dt               50.000
dE/dt unit          mV/s
E1 (V)              0.300
vs.                 Ref
Step percent        50
N                   10
E range min (V)     -1.000
E range max (V)     1.000
I Range             Auto
I Range min         Unset
I Range max         Unset
I Range init        Unset
Bandwidth           5
E2 (V)              -0.200
vs.                 Ref
nc cycles           2
Reverse Scan        1
Ef (V)              0.000
vs.                 Eoc

mode	ox/red	error	control changes	counter inc.	time/s	control/V	Ewe/V	<I>/mA	cycle number	(Q-Qo)/C	P/W
2	1	0	1	0	0.000000000000000E+000	-0.0984851	-0.0987932	-7.8141e-05	1	0.0000000E+000	7.71981e-09
2	1	0	1	0	0.4865	-0.0741592	-0.0742736	5.60761e-05	1	2.06179e-08	-4.16497e-09
2	1	0	1	0	0.9465	-0.0511582	-0.0512763	6.72167e-05	1	5.0762e-08	-3.44663e-09
2	1	0	1	0	1.4065	-0.0281573	-0.0283268	8.11925e-05	1	8.58688e-08	-2.29992e-09
2	1	0	1	0	1.8665	-0.00515635	-0.00533053	0.000103249	1	1.28825e-07	-5.50374e-10
2	1	0	1	0	2.3265	0.0178446	0.0176848	0.000185853	1	1.93495e-07	3.28677e-09
2	1	0	1	0	2.7865	0.0408455	0.0407361	0.000423347	1	3.27029e-07	1.72455e-08
2	1	0	1	0	3.2465	0.0638464	0.0637291	0.000786059	1	6.08385e-07	5.00948e-08
2	1	0	1	0	3.7065	0.0868473	0.0867169	0.000916283	1	1.01461e-06	7.94572e-08
2	1	0	1	0	4.1665	0.109848	0.10975	0.000815679	1	1.41752e-06	8.9521e-08
2	1	0	1	0	4.6265	0.132849	0.13274	0.000712197	1	1.76908e-06	9.4537e-08
2	1	0	0	0	5.0867	0.15585	0.155743	0.000645803	1	2.08109e-06	1.00579e-07
2	1	0	0	0	5.5467	0.178851	0.178757	0.000604312	1	2.36874e-06	1.08025e-07
2	1	0	0	0	6.0067	0.201852	0.201713	0.000580703	1	2.64209e-06	1.17135e-07
2	1	0	0	0	6.4667	0.224853	0.224781	0.000570908	1	2.9078e-06	1.28329e-07
2	1	0	0	0	6.9267	0.247854	0.247747	0.000567031	1	3.17034e-06	1.4048e-07
2	1	0	0	0	7.3867	0.270855	0.270743	0.00057133	1	3.43324e-06	1.54684e-07
2	1	0	0	0	7.8467	0.293856	0.293743	0.000581302	1	3.69932e-06	1.70753e-07
2	0	0	1	0	8.2953	0.283705	0.283486	0.000350578	1	3.90123e-06	9.93839e-08
2	0	0	1	0	8.7553	0.260704	0.260514	0.000281451	1	4.04501e-06	7.33217e-08
2	0	0	1	0	9.2153	0.237703	0.237512	0.00024174	1	4.1633e-06	5.74162e-08
2	0	0	1	0	9.6753	0.214702	0.214537	0.000217385	1	4.26724e-06	4.66372e-08
2	0	0	1	0	10.1353	0.191702	0.191537	0.000193689	1	4.36042e-06	3.70985e-08
2	0	0	1	0	10.5953	0.168701	0.168542	0.000174571	1	4.44429e-06	2.94225e-08
2	0	0	0	0	11.0555	0.1457	0.145523	0.000154531	1	4.51923e-06	2.24879e-08
2	0	0	0	0	11.5155	0.122699	0.122546	0.000124603	1	4.58294e-06	1.52696e-08
2	0	0	0	0	11.9755	0.0996979	0.0995285	6.329e-05	1	4.62712e-06	6.29916e-09
2	0	0	0	0	12.4355	0.0766969	0.0765874	-9.89499e-05	1	4.62375e-06	-7.57831e-09
2	0	0	0	0	12.8955	0.053696	0.0535127	-0.000430082	1	4.50638e-06	-2.30149e-08
2	0	0	0	0	13.3555	0.0306951	0.0305282	-0.00069744	1	4.23347e-06	-2.12916e-08
2	0	0	0	0	13.8155	0.00769417	0.00757013	-0.000637492	1	3.91653e-06	-4.8259e-09
2	0	0	0	0	14.2755	-0.0153068	-0.0154823	-0.000494554	1	3.6572e-06	7.65682e-09
2	0	0	0	0	14.7355	-0.0383077	-0.0384584	-0.000400117	1	3.45263e-06	1.53878e-08
2	0	0	0	0	15.1955	-0.0613086	-0.0615076	-0.000344142	1	3.28137e-06	2.11673e-08
2	0	0	0	0	15.6555	-0.0843096	-0.0844975	-0.000308563	1	3.13077e-06	2.60728e-08
2	0	0	1	0	16.1157	-0.107311	-0.107481	-0.000284621	1	2.99392e-06	3.05914e-08
2	0	0	1	0	16.5757	-0.130311	-0.130444	-0.000266182	1	2.86684e-06	3.47219e-08
2	0	0	1	0	17.0357	-0.153312	-0.153418	-0.000253252	1	2.74676e-06	3.88534e-08
2	0	0	1	0	17.4957	-0.176313	-0.17645	-0.00024599	1	2.63115e-06	4.34048e-08
2	0	0	1	0	17.9557	-0.199314	-0.199443	-0.000243847	1	2.51765e-06	4.86335e-08
2	1	0	0	1	18.4051	-0.178213	-0.178284	-6.53071e-05	1	2.47578e-06	1.16432e-08
2	1	0	0	1	18.8651	-0.155212	-0.155268	-3.79386e-05	1	2.45366e-06	5.89066e-09
2	1	0	0	1	19.3251	-0.132212	-0.132336	-2.02958e-05	1	2.4417e-06	2.68586e-09
2	1	0	0	1	19.7851	-0.109211	-0.109335	-6.53559e-06	1	2.43688e-06	7.1457e-10
2	1	0	1	1	20.2453	-0.0862097	-0.0863484	3.12836e-06	2	2.43758e-06	-2.70129e-10
2	1	0	1	1	20.7053	-0.0632087	-0.0633331	1.40518e-05	2	2.44292e-06	-8.89942e-10
2	1	0	1	1	21.1653	-0.0402078	-0.0403687	2.15943e-05	2	2.45244e-06	-8.71733e-10
2	1	0	1	1	21.6253	-0.0172068	-0.0173969	3.76649e-05	2	2.46729e-06	-6.55252e-10
2	1	0	1	1	22.0853	0.00579409	0.00568841	8.06166e-05	2	2.494e-06	4.5858e-10
2	1	0	1	1	22.5453	0.028795	0.0286274	0.000213935	2	2.55743e-06	6.12441e-09
2	1	0	1	1	23.0053	0.0517959	0.051736	0.00051657	2	2.72032e-06	2.67253e-08
2	1	0	1	1	23.4653	0.0747969	0.0746368	0.000802075	2	3.03272e-06	5.98643e-08
2	1	0	1	1	23.9253	0.0977978	0.0976743	0.000815685	2	3.41606e-06	7.96715e-08
2	1	0	1	1	24.3853	0.120799	0.120668	0.000700537	2	3.76696e-06	8.45327e-08
2	1	0	1	1	24.8453	0.1438	0.143699	0.000606174	2	4.06747e-06	8.71064e-08
2	1	0	0	1	25.3055	0.166801	0.166683	0.000544696	2	4.33205e-06	9.07917e-08
2	1	0	0	1	25.7655	0.189801	0.189665	0.00050322	2	4.5732e-06	9.54429e-08
2	1	0	0	1	26.2255	0.212802	0.212676	0.000478017	2	4.79945e-06	1.01663e-07
2	1	0	0	1	26.6855	0.235803	0.235627	0.000463723	2	5.01661e-06	1.09266e-07
2	1	0	0	1	27.1455	0.258804	0.258632	0.000457293	2	5.2293e-06	1.18271e-07
2	1	0	0	1	27.6055	0.281805	0.28168	0.000463923	2	5.44219e-06	1.30678e-07
2	0	0	0	1	28.0551	0.295706	0.295539	0.000334916	2	5.64411e-06	9.89807e-08
2	0	0	0	1	28.5151	0.272705	0.272522	0.000253137	2	5.77552e-06	6.89853e-08
2	0	0	0	1	28.9751	0.249704	0.249505	0.000219346	2	5.88267e-06	5.4728e-08
2	0	0	0	1	29.4351	0.226703	0.226476	0.000195151	2	5.97626e-06	4.41972e-08
2	0	0	0	1	29.8951	0.203702	0.203562	0.00017204	2	6.0602e-06	3.50207e-08
2	0	0	0	1	30.3551	0.180701	0.180517	0.000158751	2	6.13601e-06	2.86573e-08
2	0	0	0	1	30.8151	0.1577	0.157524	0.000140052	2	6.20406e-06	2.20615e-08
2	0	0	1	1	31.2753	0.134699	0.134533	0.000118416	2	6.2634e-06	1.59308e-08
2	0	0	1	1	31.7353	0.111698	0.111515	8.28811e-05	2	6.30978e-06	9.24252e-09
2	0	0	1	1	32.1953	0.0886974	0.0885265	-1.36612e-05	2	6.32849e-06	-1.20938e-09
2	0	0	1	1	32.6553	0.0656965	0.0655929	-0.000241475	2	6.27628e-06	-1.5839e-08
2	0	0	1	1	33.1153	0.0426956	0.0425065	-0.000596109	2	6.08175e-06	-2.53385e-08
2	0	0	1	1	33.5753	0.0196946	0.0195358	-0.000723012	2	5.76313e-06	-1.41246e-08
[...]
2	1	0	1	0	39.0849	-0.144212	-0.144346	-4.12188e-05	2	4.01689e-06	5.94976e-09
2	1	0	1	0	39.5449	-0.121211	-0.121337	-2.59147e-05	2	4.00268e-06	3.14441e-09
2	1	0	0	0	40.0051	-0.0982101	-0.0983459	-1.64539e-05	3	3.995e-06	1.61817e-09
2	1	0	0	0	40.4651	-0.0752092	-0.0753497	-1.01737e-06	3	3.99259e-06	7.66584e-11
2	1	0	0	0	40.9251	-0.0522083	-0.0523227	8.7455e-06	3	3.99459e-06	-4.57588e-10
2	1	0	0	0	41.3851	-0.0292073	-0.0293561	1.73673e-05	3	4.00119e-06	-5.09836e-10
2	1	0	0	0	41.8451	-0.0062064	-0.00632068	4.22699e-05	3	4.01525e-06	-2.67175e-10
2	1	0	0	0	42.3051	0.0167945	0.0166999	0.000115091	3	4.0496e-06	1.92202e-09
2	1	0	0	0	42.7651	0.0397955	0.0396972	0.000323001	3	4.14453e-06	1.28223e-08
2	1	0	0	0	43.2251	0.0627964	0.0626902	0.000649975	3	4.36873e-06	4.07471e-08
2	1	0	0	0	43.6851	0.0857973	0.0856589	0.000822563	3	4.72041e-06	7.04598e-08
2	1	0	0	0	44.1451	0.108798	0.108665	0.000755191	3	5.08957e-06	8.20625e-08
2	1	0	0	0	44.6051	0.131799	0.131674	0.000642779	3	5.41132e-06	8.4637e-08
2	1	0	1	0	45.0653	0.1548	0.15467	0.000561341	3	5.68825e-06	8.68225e-08
2	1	0	1	0	45.5253	0.177801	0.177684	0.000507226	3	5.93459e-06	9.01259e-08
2	1	0	1	0	45.9853	0.200802	0.200641	0.000471456	3	6.16087e-06	9.45935e-08
2	1	0	1	0	46.4453	0.223803	0.223625	0.000449993	3	6.374e-06	1.00629e-07
2	1	0	1	0	46.9053	0.246804	0.246626	0.000435297	3	6.57873e-06	1.07355e-07
2	1	0	1	0	47.3653	0.269805	0.269671	0.000430556	3	6.77923e-06	1.16108e-07
2	1	0	1	0	47.8253	0.292806	0.292609	0.000437685	3	6.98014e-06	1.2807e-07
2	0	0	1	0	48.2749	0.284705	0.284505	0.000264437	3	7.13349e-06	7.52336e-08
2	0	0	1	0	48.7349	0.261704	0.261532	0.000221151	3	7.24326e-06	5.78382e-08
2	0	0	1	0	49.1949	0.238703	0.238511	0.000196331	3	7.33756e-06	4.68272e-08
2	0	0	1	0	49.6549	0.215703	0.215542	0.000174725	3	7.42167e-06	3.76606e-08
2	0	0	1	0	50.1149	0.192702	0.192571	0.000158483	3	7.49763e-06	3.05193e-08
2	0	0	1	0	50.5749	0.169701	0.16952	0.000142884	3	7.56612e-06	2.42217e-08
2	0	0	0	0	51.0351	0.1467	0.146526	0.000125105	3	7.62688e-06	1.83311e-08
2	0	0	0	0	51.4951	0.123699	0.123463	0.000100088	3	7.67777e-06	1.23571e-08
2	0	0	0	0	51.9551	0.100698	0.100513	4.17647e-05	3	7.71105e-06	4.19791e-09
2	0	0	0	0	52.4151	0.077697	0.0775458	-9.92643e-05	3	7.70203e-06	-7.69753e-09
2	0	0	0	0	52.8751	0.0546961	0.0545389	-0.000406276	3	7.59083e-06	-2.21579e-08
2	0	0	0	0	53.3351	0.0316951	0.0315427	-0.000702471	3	7.32644e-06	-2.21578e-08
2	0	0	0	0	53.7951	0.00869421	0.008573	-0.000682512	3	6.99618e-06	-5.85118e-09
2	0	0	0	0	54.2551	-0.0143067	-0.0145271	-0.000542352	3	6.71375e-06	7.87881e-09
2	0	0	0	0	54.7151	-0.0373077	-0.0374343	-0.00044309	3	6.48829e-06	1.65868e-08
2	0	0	0	0	55.1751	-0.0603086	-0.0605185	-0.000383197	3	6.29903e-06	2.31905e-08
2	0	0	0	0	55.6351	-0.0833095	-0.0835338	-0.000343386	3	6.13237e-06	2.86843e-08
2	0	0	1	0	56.0953	-0.10631	-0.10646	-0.00031138	3	5.98107e-06	3.31496e-08
2	0	0	1	0	56.5553	-0.129311	-0.129456	-0.000293614	3	5.84087e-06	3.80102e-08
2	0	0	1	0	57.0153	-0.152312	-0.152457	-0.000278181	3	5.70867e-06	4.24105e-08
2	0	0	1	0	57.4753	-0.175313	-0.175446	-0.000269633	3	5.58214e-06	4.7306e-08
2	0	0	1	0	57.9353	-0.198314	-0.198477	-0.000265733	3	5.45861e-06	5.27418e-08
2	1	0	0	1	58.3847	-0.179213	-0.179298	-8.62407e-05	3	5.40513e-06	1.54628e-08
2	1	0	0	1	58.8447	-0.156213	-0.156406	-5.64063e-05	3	5.37415e-06	8.82226e-09
2	1	0	0	1	59.3047	-0.133212	-0.133308	-4.08991e-05	3	5.35363e-06	5.45216e-09
2	1	0	0	1	59.7647	-0.110211	-0.110345	-2.54466e-05	3	5.34061e-06	2.80792e-09
2	1	0	1	1	60.2249	-0.0872097	-0.0873598	-1.46946e-05	3	5.33352e-06	1.28372e-09
2	1	0	0	1	60.4874	-0.0740841	-0.0743107	-6.32009e-06	3	5.33167e-06	4.6965e-10