Folder: automated_analyisis/AutoAnalysis Examples/EC (part 6)

File: C003A-5ppb-A_C01.mpt
EC-Lab ASCII FILE
Nb header lines : 59

Cyclic Voltammetry

Run on channel : 1 (SN 22398)
User :
CE vs. WE compliance from -10 V to 10 V
Electrode connection : standard
Ewe ctrl range : min = -1.00 V, max = 1.00 V
Safety Limits :
	Ewe min = -2.00 V
	Ewe max = 2.00 V
	|I| = 50.000 mA
	for t > 10 ms
Acquisition started on : 11/21/2018 10:00:20
Technique started on : 11/21/2018 10:00:20
Saved on :
	File : C003A-5ppb-A_C01.mpr
	Directory : \\ECCOMPUTER\Users\Lab User\Google Drive\Electrochemical Data\EC-Lab\Data\FREDsense\Tim\2018.11.21 - EC comparison to High Throughput\
	Host : 172.16.1.30
Device : SP-50 (SN 0301030103010301)
Address : USB
EC-Lab for windows v11.02 (software)
Internet server v11.02 (firmware)
Command interpretor v11.02 (firmware)
Electrode material : Au/Pd
Initial state :
Electrolyte : NaCl (0.2M)
Comments : Fe(CN)63-/Fe(CN)64- 5.10-3 M
Reference electrode : SCE Saturated Calomel Electrode (0.241 V)
Electrode surface area : 0.001 cm²
Characteristic mass : 0.001 g
Equivalent Weight : 0.000 g/eq.
Density : 0.000 g/cm3
Cycle Definition : Charge/Discharge alternance
Ei (V)              -0.100
vs.                 Ref
dE/dt               50.000
dE/dt unit          mV/s
E1 (V)              0.300
vs.                 Ref
Step percent        50
N                   10
E range min (V)     -1.000
E range max (V)     1.000
I Range             Auto
I Range min         Unset
I Range max         Unset
I Range init        Unset
Bandwidth           5
E2 (V)              -0.200
vs.                 Ref
nc cycles           2
Reverse Scan        1
Ef (V)              0.000
vs.                 Eoc

mode	ox/red	error	control changes	counter inc.	time/s	control/V	Ewe/V	<I>/mA	cycle number	(Q-Qo)/C	P/W
2	1	0	0	0	0.000000000000000E+000	-0.0984934	-0.0987167	-9.08585e-05	1	0.0000000E+000	8.96925e-09
2	1	0	1	0	0.4867	-0.0741678	-0.0743381	5.23048e-05	1	1.88631e-08	-3.88824e-09
2	1	0	1	0	0.9467	-0.0511673	-0.0512676	6.24563e-05	1	4.67734e-08	-3.20199e-09
2	1	0	1	0	1.4067	-0.0281668	-0.0282809	7.56495e-05	1	7.97119e-08	-2.13944e-09
2	1	0	1	0	1.8667	-0.00516631	-0.00529106	9.95665e-05	1	1.20316e-07	-5.26813e-10
2	1	0	1	0	2.3267	0.0178342	0.0177486	0.000176322	1	1.8165e-07	3.12947e-09
2	1	0	1	0	2.7867	0.0408347	0.0406749	0.000385014	1	3.0535e-07	1.56604e-08
2	1	0	1	0	3.2467	0.0638352	0.0637389	0.000701454	1	5.57566e-07	4.47099e-08
2	1	0	1	0	3.7067	0.0868357	0.0867076	0.000836358	1	9.23428e-07	7.25186e-08
2	1	0	1	0	4.1667	0.109836	0.109723	0.000769174	1	1.29785e-06	8.4396e-08
2	1	0	1	0	4.6267	0.132837	0.132738	0.000677365	1	1.63087e-06	8.99122e-08
2	1	0	1	0	5.0867	0.155837	0.1557	0.000613141	1	1.92774e-06	9.54663e-08
2	1	0	1	0	5.5467	0.178838	0.178759	0.000575075	1	2.20146e-06	1.028e-07
2	1	0	1	0	6.0067	0.201838	0.201691	0.000551149	1	2.46145e-06	1.11162e-07
2	1	0	1	0	6.4667	0.224839	0.224722	0.000542632	1	2.71422e-06	1.21941e-07
2	1	0	1	0	6.9267	0.247839	0.247694	0.000541697	1	2.96423e-06	1.34175e-07
2	1	0	1	0	7.3867	0.27084	0.270737	0.000544642	1	3.21497e-06	1.47455e-07
2	1	0	1	0	7.8467	0.29384	0.293652	0.000553659	1	3.46916e-06	1.62583e-07
2	0	0	0	0	8.2953	0.28374	0.283562	0.000330873	1	3.6611e-06	9.38229e-08
2	0	0	0	0	8.7553	0.260739	0.260576	0.000257533	1	3.79323e-06	6.71072e-08
2	0	0	0	0	9.2153	0.237739	0.237555	0.000221658	1	3.90193e-06	5.26559e-08
2	0	0	0	0	9.6753	0.214738	0.214555	0.000194645	1	3.99658e-06	4.1762e-08
2	0	0	0	0	10.1353	0.191738	0.191545	0.000173534	1	4.08027e-06	3.32397e-08
2	0	0	0	0	10.5953	0.168737	0.168565	0.000155132	1	4.15543e-06	2.61498e-08
2	0	0	0	0	11.0553	0.145737	0.145559	0.000133151	1	4.22091e-06	1.93814e-08
2	0	0	0	0	11.5153	0.122736	0.122563	0.000107113	1	4.27549e-06	1.3128e-08
2	0	0	0	0	11.9753	0.099736	0.0995828	4.94468e-05	1	4.31208e-06	4.92405e-09
2	0	0	0	0	12.4353	0.0767355	0.076612	-7.6794e-05	1	4.30935e-06	-5.88334e-09
2	0	0	0	0	12.8953	0.053735	0.0535745	-0.000344567	1	4.21628e-06	-1.846e-08
2	0	0	0	0	13.3553	0.0307345	0.0305793	-0.000608423	1	3.98887e-06	-1.86051e-08
2	0	0	0	0	13.8153	0.00773397	0.00757779	-0.000603044	1	3.69966e-06	-4.56974e-09
2	0	0	0	0	14.2753	-0.0152665	-0.0154672	-0.000480173	1	3.44938e-06	7.42694e-09
2	0	0	0	0	14.7353	-0.038267	-0.0384348	-0.000389476	1	3.2502e-06	1.49694e-08
2	0	0	0	0	15.1953	-0.0612676	-0.0614575	-0.000333209	1	3.08413e-06	2.04782e-08
2	0	0	0	0	15.6553	-0.084268	-0.0844368	-0.000298394	1	2.93843e-06	2.51954e-08
2	0	0	1	0	16.1155	-0.107269	-0.10745	-0.000274298	1	2.80606e-06	2.94733e-08
2	0	0	1	0	16.5755	-0.130269	-0.130414	-0.000257751	1	2.68304e-06	3.36144e-08
2	0	0	1	0	17.0355	-0.15327	-0.153416	-0.000246417	1	2.56656e-06	3.78044e-08
2	0	0	1	0	17.4955	-0.17627	-0.176437	-0.000239188	1	2.45432e-06	4.22014e-08
2	0	0	1	0	17.9555	-0.199271	-0.199393	-0.00023816	1	2.34423e-06	4.74872e-08
2	1	0	1	1	18.4059	-0.17822	-0.178325	-6.33129e-05	1	2.30388e-06	1.12902e-08
2	1	0	1	1	18.8659	-0.15522	-0.155364	-3.4865e-05	1	2.28328e-06	5.41679e-09
2	1	0	1	1	19.3259	-0.132219	-0.132336	-1.93985e-05	1	2.2725e-06	2.56713e-09
2	1	0	1	1	19.7859	-0.109219	-0.109335	-5.53404e-06	1	2.26854e-06	6.05064e-10
2	1	0	0	1	20.2461	-0.0862181	-0.0863641	3.54523e-06	2	2.26986e-06	-3.06181e-10
2	1	0	0	1	20.7061	-0.0632176	-0.0633541	1.32074e-05	2	2.27558e-06	-8.36744e-10
2	1	0	0	1	21.1661	-0.0402171	-0.0403367	2.34525e-05	2	2.28531e-06	-9.45996e-10
2	1	0	0	1	21.6261	-0.0172166	-0.0173426	3.72092e-05	2	2.30029e-06	-6.45303e-10
2	1	0	0	1	22.0861	0.00578393	0.00567486	7.82638e-05	2	2.32681e-06	4.44136e-10
2	1	0	0	1	22.5461	0.0287844	0.028669	0.000199055	2	2.3874e-06	5.70671e-09
2	1	0	0	1	23.0061	0.0517849	0.0516758	0.000458332	2	2.53512e-06	2.36847e-08
2	1	0	0	1	23.4661	0.0747854	0.0747197	0.000710031	2	2.81107e-06	5.30533e-08
2	1	0	0	1	23.9261	0.0977859	0.0976513	0.000738949	2	3.15383e-06	7.21593e-08
2	1	0	0	1	24.3861	0.120786	0.120688	0.000647884	2	3.47502e-06	7.81917e-08
2	1	0	0	1	24.8461	0.143787	0.143637	0.000562016	2	3.75323e-06	8.07265e-08
2	1	0	0	1	25.3061	0.166787	0.166638	0.000503621	2	3.99872e-06	8.39222e-08
2	1	0	0	1	25.7661	0.189788	0.189675	0.000465339	2	4.22257e-06	8.82634e-08
2	1	0	0	1	26.2261	0.212788	0.212647	0.000442931	2	4.43266e-06	9.4188e-08
2	1	0	0	1	26.6861	0.235789	0.235671	0.000431204	2	4.63462e-06	1.01622e-07
2	1	0	0	1	27.1461	0.258789	0.258637	0.000427703	2	4.83304e-06	1.1062e-07
2	1	0	0	1	27.6061	0.28179	0.281685	0.000435724	2	5.0325e-06	1.22737e-07
2	0	0	0	1	28.0557	0.29574	0.295576	0.000310978	2	5.22239e-06	9.19177e-08
2	0	0	0	1	28.5157	0.27274	0.272556	0.000229616	2	5.34224e-06	6.25831e-08
2	0	0	0	1	28.9757	0.249739	0.249536	0.00019224	2	5.43774e-06	4.7971e-08
2	0	0	0	1	29.4357	0.226739	0.226548	0.000170991	2	5.51995e-06	3.87375e-08
2	0	0	0	1	29.8957	0.203738	0.203562	0.000150539	2	5.59279e-06	3.06441e-08
2	0	0	0	1	30.3557	0.180738	0.180543	0.000135182	2	5.65773e-06	2.44063e-08
2	0	0	0	1	30.8157	0.157737	0.157579	0.000119076	2	5.71531e-06	1.87639e-08
2	0	0	0	1	31.2757	0.134737	0.134565	9.81304e-05	2	5.76447e-06	1.32049e-08
2	0	0	0	1	31.7357	0.111736	0.111557	6.2988e-05	2	5.80157e-06	7.02674e-09
2	0	0	0	1	32.1957	0.0887357	0.0885776	-1.34369e-05	2	5.81485e-06	-1.19021e-09
2	0	0	0	1	32.6557	0.0657352	0.0655878	-0.000196077	2	5.77126e-06	-1.28603e-08
2	0	0	0	1	33.1157	0.0427347	0.042529	-0.000494932	2	5.61255e-06	-2.1049e-08
2	0	0	0	1	33.5757	0.0197342	0.0195964	-0.00065324	2	5.33637e-06	-1.28012e-08
[...]
2	1	0	1	0	39.5463	-0.121219	-0.121312	-2.44098e-05	2	3.65261e-06	2.9612e-09
2	1	0	1	0	40.0063	-0.0982184	-0.0983478	-1.21775e-05	3	3.64611e-06	1.19763e-09
2	1	0	0	0	40.4665	-0.0752179	-0.0753409	-1.70273e-06	3	3.64458e-06	1.28285e-10
2	1	0	0	0	40.9265	-0.0522174	-0.05235	1.04306e-05	3	3.64726e-06	-5.46044e-10
2	1	0	0	0	41.3865	-0.0292168	-0.0293612	1.75492e-05	3	3.6544e-06	-5.15266e-10
2	1	0	0	0	41.8465	-0.00621634	-0.00634377	4.08798e-05	3	3.66883e-06	-2.59332e-10
2	1	0	0	0	42.3065	0.0167842	0.0167203	0.000110986	3	3.70251e-06	1.85572e-09
2	1	0	0	0	42.7665	0.0397847	0.0396699	0.000290108	3	3.79061e-06	1.15085e-08
2	1	0	0	0	43.2265	0.0627852	0.0626671	0.000572425	3	3.98986e-06	3.58723e-08
2	1	0	0	0	43.6865	0.0857857	0.0856581	0.000728179	3	4.29976e-06	6.23744e-08
2	1	0	0	0	44.1465	0.108786	0.108681	0.000684616	3	4.63103e-06	7.44046e-08
2	1	0	0	0	44.6065	0.131787	0.131648	0.00058977	3	4.9246e-06	7.76422e-08
2	1	0	0	0	45.0665	0.154787	0.154691	0.000514767	3	5.17865e-06	7.96299e-08
2	1	0	0	0	45.5265	0.177788	0.177643	0.000464866	3	5.40491e-06	8.25802e-08
2	1	0	0	0	45.9865	0.200788	0.200679	0.000433661	3	5.61277e-06	8.70268e-08
2	1	0	0	0	46.4465	0.223789	0.223607	0.000413432	3	5.80866e-06	9.24462e-08
2	1	0	0	0	46.9065	0.246789	0.246672	0.000401935	3	5.99721e-06	9.9146e-08
2	1	0	0	0	47.3665	0.26979	0.269694	0.000397909	3	6.18261e-06	1.07313e-07
2	1	0	0	0	47.8265	0.29279	0.292673	0.000408705	3	6.36938e-06	1.19617e-07
2	0	0	0	0	48.2761	0.28474	0.284581	0.00023631	3	6.51017e-06	6.72494e-08
2	0	0	0	0	48.7361	0.261739	0.261619	0.000193551	3	6.60714e-06	5.06366e-08
2	0	0	0	0	49.1961	0.238739	0.23855	0.000167354	3	6.6888e-06	3.99223e-08
2	0	0	0	0	49.6561	0.215738	0.215578	0.000148264	3	6.76063e-06	3.19626e-08
2	0	0	0	0	50.1161	0.192738	0.192652	0.000132285	3	6.82468e-06	2.54851e-08
2	0	0	0	0	50.5761	0.169737	0.169564	0.000118905	3	6.88167e-06	2.0162e-08
2	0	0	0	0	51.0361	0.146737	0.14657	0.000100656	3	6.93131e-06	1.47532e-08
2	0	0	0	0	51.4961	0.123736	0.123595	7.62201e-05	3	6.97167e-06	9.42039e-09
2	0	0	0	0	51.9561	0.100736	0.100563	2.92904e-05	3	6.99637e-06	2.94555e-09
2	0	0	0	0	52.4161	0.0777355	0.0776043	-8.64314e-05	3	6.98607e-06	-6.70745e-09
2	0	0	0	0	52.8761	0.054735	0.054607	-0.000330676	3	6.89419e-06	-1.80572e-08
2	0	0	0	0	53.3361	0.0317345	0.0315896	-0.000606746	3	6.67244e-06	-1.91669e-08
2	0	0	0	0	53.7961	0.00873399	0.008569	-0.000633193	3	6.37591e-06	-5.42583e-09
2	0	0	0	0	54.2561	-0.0142665	-0.0144558	-0.000518303	3	6.10881e-06	7.49251e-09
2	0	0	0	0	54.7161	-0.037267	-0.0373927	-0.000423845	3	5.89287e-06	1.58487e-08
2	0	0	0	0	55.1761	-0.0602675	-0.0604239	-0.000365006	3	5.71153e-06	2.20551e-08
2	0	0	0	0	55.6361	-0.083268	-0.0833724	-0.000328127	3	5.55179e-06	2.73568e-08
2	0	0	1	0	56.0963	-0.106269	-0.106431	-0.000301282	3	5.40641e-06	3.20658e-08
2	0	0	1	0	56.5563	-0.129269	-0.129413	-0.000281438	3	5.2714e-06	3.64216e-08
2	0	0	1	0	57.0163	-0.15227	-0.1524	-0.000269589	3	5.14391e-06	4.10855e-08
2	0	0	1	0	57.4763	-0.17527	-0.1754	-0.000260799	3	5.02152e-06	4.57442e-08
2	0	0	1	0	57.9363	-0.198271	-0.198409	-0.00025683	3	4.90192e-06	5.09574e-08
2	1	0	1	1	58.3867	-0.17922	-0.179322	-7.94877e-05	3	4.8508e-06	1.42539e-08
2	1	0	1	1	58.8467	-0.15622	-0.15635	-5.32073e-05	3	4.82214e-06	8.31898e-09
2	1	0	1	1	59.3067	-0.133219	-0.133336	-3.55575e-05	3	4.80354e-06	4.7411e-09
2	1	0	1	1	59.7667	-0.110219	-0.110347	-2.27829e-05	3	4.79206e-06	2.51403e-09
2	1	0	0	1	60.2269	-0.0872181	-0.0873627	-9.86525e-06	3	4.78619e-06	8.61855e-10
2	1	0	0	1	60.6869	-0.0642176	-0.0643612	-5.19245e-07	3	4.78492e-06	3.34193e-11
2	1	0	1	1	60.7002	-0.0635426	-0.0638343	-3.74468e-06	3	4.78495e-06	2.39039e-10

File: C003A-5ppb-B_C01.mpt
EC-Lab ASCII FILE
Nb header lines : 59

Cyclic Voltammetry

Run on channel : 1 (SN 22398)
User :
CE vs. WE compliance from -10 V to 10 V
Electrode connection : standard
Ewe ctrl range : min = -1.00 V, max = 1.00 V
Safety Limits :
	Ewe min = -2.00 V
	Ewe max = 2.00 V
	|I| = 50.000 mA
	for t > 10 ms
Acquisition started on : 11/21/2018 10:59:54
Technique started on : 11/21/2018 10:59:54
Saved on :
	File : C003A-5ppb-B_C01.mpr
	Directory : \\ECCOMPUTER\Users\Lab User\Google Drive\Electrochemical Data\EC-Lab\Data\FREDsense\Tim\2018.11.21 - EC comparison to High Throughput\
	Host : 172.16.1.30
Device : SP-50 (SN 0301030103010301)
Address : USB
EC-Lab for windows v11.02 (software)
Internet server v11.02 (firmware)
Command interpretor v11.02 (firmware)
Electrode material : Au/Pd
Initial state :
Electrolyte : NaCl (0.2M)
Comments : Fe(CN)63-/Fe(CN)64- 5.10-3 M
Reference electrode : SCE Saturated Calomel Electrode (0.241 V)
Electrode surface area : 0.001 cm²
Characteristic mass : 0.001 g
Equivalent Weight : 0.000 g/eq.
Density : 0.000 g/cm3
Cycle Definition : Charge/Discharge alternance
Ei (V)              -0.100
vs.                 Ref
dE/dt               50.000
dE/dt unit          mV/s
E1 (V)              0.300
vs.                 Ref
Step percent        50
N                   10
E range min (V)     -1.000
E range max (V)     1.000
I Range             Auto
I Range min         Unset
I Range max         Unset
I Range init        Unset
Bandwidth           5
E2 (V)              -0.200
vs.                 Ref
nc cycles           2
Reverse Scan        1
Ef (V)              0.000
vs.                 Eoc

mode	ox/red	error	control changes	counter inc.	time/s	control/V	Ewe/V	<I>/mA	cycle number	(Q-Qo)/C	P/W
2	1	0	1	0	0.000000000000000E+000	-0.0984851	-0.0986406	-4.8255e-05	1	0.0000000E+000	4.7599e-09
2	1	0	1	0	0.4865	-0.0741592	-0.0743362	5.5419e-05	1	1.96499e-08	-4.11963e-09
2	1	0	1	0	0.9465	-0.0511582	-0.051288	6.57948e-05	1	4.8823e-08	-3.37448e-09
2	1	0	1	0	1.4065	-0.0281573	-0.0282684	7.60134e-05	1	8.2424e-08	-2.14878e-09
2	1	0	1	0	1.8665	-0.00515635	-0.00526162	9.58571e-05	1	1.22685e-07	-5.04363e-10
2	1	0	1	0	2.3265	0.0178446	0.0177335	0.00016114	1	1.80566e-07	2.85757e-09
2	1	0	1	0	2.7865	0.0408455	0.0407796	0.000350534	1	2.93036e-07	1.42946e-08
2	1	0	1	0	3.2465	0.0638464	0.0637058	0.000646955	1	5.23762e-07	4.12148e-08
2	1	0	1	0	3.7065	0.0868473	0.086719	0.000769656	1	8.61475e-07	6.67438e-08
2	1	0	1	0	4.1665	0.109848	0.109783	0.000702369	1	1.20442e-06	7.71082e-08
2	1	0	1	0	4.6265	0.132849	0.132691	0.000617256	1	1.50799e-06	8.19046e-08
2	1	0	0	0	5.0867	0.15585	0.155775	0.000560084	1	1.77937e-06	8.72473e-08
2	1	0	0	0	5.5467	0.178851	0.178766	0.0005292	1	2.03076e-06	9.46032e-08
2	1	0	0	0	6.0067	0.201852	0.201712	0.000511289	1	2.27089e-06	1.03133e-07
2	1	0	0	0	6.4667	0.224853	0.224666	0.000506366	1	2.50572e-06	1.13763e-07
2	1	0	0	0	6.9267	0.247854	0.247713	0.000505543	1	2.7393e-06	1.25229e-07
2	1	0	0	0	7.3867	0.270855	0.270751	0.000511949	1	2.97491e-06	1.38611e-07
2	1	0	0	0	7.8467	0.293856	0.293667	0.000526605	1	3.21515e-06	1.54646e-07
2	0	0	1	0	8.2953	0.283705	0.283525	0.000297014	1	3.39277e-06	8.42109e-08
2	0	0	1	0	8.7553	0.260704	0.260514	0.000228874	1	3.51074e-06	5.96247e-08
2	0	0	1	0	9.2153	0.237703	0.23752	0.000190956	1	3.60593e-06	4.53559e-08
2	0	0	1	0	9.6753	0.214702	0.214523	0.000170055	1	3.68779e-06	3.64807e-08
2	0	0	1	0	10.1353	0.191702	0.191561	0.000147897	1	3.75925e-06	2.83313e-08
2	0	0	1	0	10.5953	0.168701	0.168509	0.000135325	1	3.82282e-06	2.28035e-08
2	0	0	0	0	11.0555	0.1457	0.145524	0.00011149	1	3.87813e-06	1.62244e-08
2	0	0	0	0	11.5155	0.122699	0.122499	8.5188e-05	1	3.92271e-06	1.04355e-08
2	0	0	0	0	11.9755	0.0996979	0.0995168	3.12812e-05	1	3.95033e-06	3.113e-09
2	0	0	0	0	12.4355	0.0766969	0.0765492	-0.000101997	1	3.93805e-06	-7.80779e-09
2	0	0	0	0	12.8955	0.053696	0.0535212	-0.000371597	1	3.83262e-06	-1.98883e-08
2	0	0	0	0	13.3555	0.0306951	0.0305027	-0.000584893	1	3.60196e-06	-1.78408e-08
2	0	0	0	0	13.8155	0.00769417	0.00753832	-0.000536483	1	3.33567e-06	-4.04418e-09
2	0	0	0	0	14.2755	-0.0153068	-0.0154791	-0.000423354	1	3.11533e-06	6.55314e-09
2	0	0	0	0	14.7355	-0.0383077	-0.0385029	-0.000346577	1	2.93925e-06	1.33442e-08
2	0	0	0	0	15.1955	-0.0613086	-0.0614482	-0.00030027	1	2.79022e-06	1.8451e-08
2	0	0	0	0	15.6555	-0.0843096	-0.0844858	-0.000271702	1	2.65785e-06	2.29549e-08
2	0	0	1	0	16.1157	-0.107311	-0.107433	-0.000253319	1	2.53647e-06	2.72149e-08
2	0	0	1	0	16.5757	-0.130311	-0.130473	-0.000238573	1	2.42278e-06	3.11273e-08
2	0	0	1	0	17.0357	-0.153312	-0.153493	-0.000228838	1	2.31443e-06	3.5125e-08
2	0	0	1	0	17.4957	-0.176313	-0.176468	-0.000224117	1	2.20924e-06	3.95493e-08
2	0	0	1	0	17.9557	-0.199314	-0.19944	-0.000223967	1	2.10512e-06	4.4668e-08
2	1	0	0	1	18.4051	-0.178213	-0.178272	-4.92576e-05	1	2.07167e-06	8.78125e-09
2	1	0	0	1	18.8651	-0.155212	-0.155351	-2.30002e-05	1	2.05727e-06	3.5731e-09
2	1	0	0	1	19.3251	-0.132212	-0.13235	-5.98447e-06	1	2.05226e-06	7.92048e-10
2	1	0	0	1	19.7851	-0.109211	-0.109315	5.06257e-06	1	2.05369e-06	-5.53414e-10
2	1	0	1	1	20.2453	-0.0862097	-0.086341	1.464e-05	2	2.06002e-06	-1.26403e-09
2	1	0	1	1	20.7053	-0.0632087	-0.0633342	2.3419e-05	2	2.07033e-06	-1.48322e-09
2	1	0	1	1	21.1653	-0.0402078	-0.0403115	3.07689e-05	2	2.0842e-06	-1.24034e-09
2	1	0	1	1	21.6253	-0.0172068	-0.0173417	4.39109e-05	2	2.10248e-06	-7.61492e-10
2	1	0	1	1	22.0853	0.00579409	0.00572233	7.58261e-05	2	2.13028e-06	4.33902e-10
2	1	0	1	1	22.5453	0.028795	0.0286698	0.000183493	2	2.18686e-06	5.26071e-09
2	1	0	1	1	23.0053	0.0517959	0.0516883	0.000418643	2	2.32133e-06	2.16389e-08
2	1	0	1	1	23.4653	0.0747969	0.0747523	0.000655877	2	2.57574e-06	4.90283e-08
2	1	0	1	1	23.9253	0.0977978	0.0976998	0.000678939	2	2.89207e-06	6.63322e-08
2	1	0	1	1	24.3853	0.120799	0.120684	0.000591079	2	3.18609e-06	7.13339e-08
2	1	0	1	1	24.8453	0.1438	0.143651	0.000514362	2	3.44019e-06	7.38886e-08
2	1	0	0	1	25.3055	0.166801	0.166693	0.000461556	2	3.66504e-06	7.6938e-08
2	1	0	0	1	25.7655	0.189801	0.189698	0.000428489	2	3.87075e-06	8.12837e-08
2	1	0	0	1	26.2255	0.212802	0.21268	0.000409267	2	4.06456e-06	8.70428e-08
2	1	0	0	1	26.6855	0.235803	0.235679	0.000399561	2	4.25154e-06	9.41681e-08
2	1	0	0	1	27.1455	0.258804	0.258702	0.000399168	2	4.43607e-06	1.03266e-07
2	1	0	0	1	27.6055	0.281805	0.281685	0.00040601	2	4.62245e-06	1.14367e-07
2	0	0	0	1	28.0551	0.295706	0.295529	0.00028029	2	4.79983e-06	8.28337e-08
2	0	0	0	1	28.5151	0.272705	0.272552	0.000204687	2	4.90705e-06	5.57878e-08
2	0	0	0	1	28.9751	0.249704	0.249537	0.000169226	2	4.99098e-06	4.22282e-08
2	0	0	0	1	29.4351	0.226703	0.226504	0.000148736	2	5.06225e-06	3.36893e-08
2	0	0	0	1	29.8951	0.203702	0.203512	0.000127965	2	5.12468e-06	2.60424e-08
2	0	0	0	1	30.3551	0.180701	0.18051	0.000112507	2	5.17984e-06	2.03087e-08
2	0	0	0	1	30.8151	0.1577	0.15753	9.98774e-05	2	5.22815e-06	1.57337e-08
2	0	0	1	1	31.2753	0.134699	0.134505	7.99489e-05	2	5.2688e-06	1.07535e-08
2	0	0	1	1	31.7353	0.111698	0.111549	4.85989e-05	2	5.29821e-06	5.42117e-09
2	0	0	1	1	32.1953	0.0886974	0.088535	-3.1228e-05	2	5.30416e-06	-2.76477e-09
2	0	0	1	1	32.6553	0.0656965	0.0655695	-0.000220181	2	5.25137e-06	-1.44372e-08
2	0	0	1	1	33.1153	0.0426956	0.0424906	-0.000502972	2	5.08323e-06	-2.13716e-08
2	0	0	1	1	33.5753	0.0196946	0.0195071	-0.000602184	2	4.81706e-06	-1.17469e-08
[...]
2	1	0	1	0	39.0849	-0.144212	-0.14431	-2.35266e-05	2	3.31794e-06	3.39511e-09
2	1	0	1	0	39.5449	-0.121211	-0.121338	-9.11629e-06	2	3.31188e-06	1.10615e-09
2	1	0	0	0	40.0051	-0.0982101	-0.0983247	1.17473e-06	3	3.31163e-06	-1.15505e-10
2	1	0	0	0	40.4651	-0.0752092	-0.0753422	1.17466e-05	3	3.31596e-06	-8.85016e-10
2	1	0	0	0	40.9251	-0.0522083	-0.0523322	2.15907e-05	3	3.32406e-06	-1.12989e-09
2	1	0	0	0	41.3851	-0.0292073	-0.0293561	2.86192e-05	3	3.33597e-06	-8.4015e-10
2	1	0	0	0	41.8451	-0.0062064	-0.00635779	4.62514e-05	3	3.35383e-06	-2.94056e-10
2	1	0	0	0	42.3051	0.0167945	0.0166957	0.00010485	3	3.38752e-06	1.75054e-09
2	1	0	0	0	42.7651	0.0397955	0.0396993	0.00026378	3	3.46814e-06	1.04719e-08
2	1	0	0	0	43.2251	0.0627964	0.0627125	0.000525909	3	3.65021e-06	3.29811e-08
2	1	0	0	0	43.6851	0.0857973	0.0857098	0.000674627	3	3.93641e-06	5.78221e-08
2	1	0	0	0	44.1451	0.108798	0.10865	0.000625204	3	4.24118e-06	6.79282e-08
2	1	0	0	0	44.6051	0.131799	0.13161	0.00053874	3	4.50991e-06	7.09036e-08
2	1	0	1	0	45.0653	0.1548	0.154686	0.000472015	3	4.74272e-06	7.30139e-08
2	1	0	1	0	45.5253	0.177801	0.177645	0.000427957	3	4.9506e-06	7.60244e-08
2	1	0	1	0	45.9853	0.200802	0.200671	0.000400013	3	5.14219e-06	8.02709e-08
2	1	0	1	0	46.4453	0.223803	0.22363	0.000382312	3	5.32331e-06	8.54963e-08
2	1	0	1	0	46.9053	0.246804	0.246683	0.00037448	3	5.49822e-06	9.23778e-08
2	1	0	1	0	47.3653	0.269805	0.269714	0.000372478	3	5.67085e-06	1.00463e-07
2	1	0	1	0	47.8253	0.292806	0.292731	0.000383084	3	5.84546e-06	1.1214e-07
2	0	0	1	0	48.2749	0.284705	0.284547	0.0002137	3	5.97435e-06	6.08077e-08
2	0	0	1	0	48.7349	0.261704	0.261552	0.000171056	3	6.06027e-06	4.474e-08
2	0	0	1	0	49.1949	0.238703	0.238506	0.00014616	3	6.13177e-06	3.48601e-08
2	0	0	1	0	49.6549	0.215703	0.215519	0.000130198	3	6.19406e-06	2.806e-08
2	0	0	1	0	50.1149	0.192702	0.192532	0.000113811	3	6.24912e-06	2.19122e-08
2	0	0	1	0	50.5749	0.169701	0.169508	0.000100247	3	6.29766e-06	1.69926e-08
2	0	0	0	0	51.0351	0.1467	0.146477	8.48648e-05	3	6.33946e-06	1.24308e-08
2	0	0	0	0	51.4951	0.123699	0.123523	6.09796e-05	3	6.37267e-06	7.5324e-09
2	0	0	0	0	51.9551	0.100698	0.100561	1.50551e-05	3	6.39087e-06	1.51395e-09
2	0	0	0	0	52.4151	0.077697	0.077532	-0.000106277	3	6.3736e-06	-8.23986e-09
2	0	0	0	0	52.8751	0.0546961	0.0545241	-0.00035256	3	6.27238e-06	-1.9223e-08
2	0	0	0	0	53.3351	0.0316951	0.0315289	-0.000583972	3	6.04871e-06	-1.8412e-08
2	0	0	0	0	53.7951	0.00869421	0.00854014	-0.000564911	3	5.77516e-06	-4.82442e-09
2	0	0	0	0	54.2551	-0.0143067	-0.0144783	-0.000452701	3	5.54034e-06	6.55436e-09
2	0	0	0	0	54.7151	-0.0373077	-0.0374841	-0.00037475	3	5.35056e-06	1.40472e-08
2	0	0	0	0	55.1751	-0.0603086	-0.0604952	-0.000327417	3	5.1892e-06	1.98072e-08
2	0	0	0	0	55.6351	-0.0833095	-0.0834872	-0.000295541	3	5.04552e-06	2.46739e-08
2	0	0	1	0	56.0953	-0.10631	-0.10647	-0.000274574	3	4.91368e-06	2.92338e-08
2	0	0	1	0	56.5553	-0.129311	-0.129439	-0.000259051	3	4.79043e-06	3.35314e-08
2	0	0	1	0	57.0153	-0.152312	-0.152426	-0.000248763	3	4.67334e-06	3.7918e-08
2	0	0	1	0	57.4753	-0.175313	-0.175455	-0.000240802	3	4.56028e-06	4.225e-08
2	0	0	1	0	57.9353	-0.198314	-0.198403	-0.000240021	3	4.44897e-06	4.76209e-08
2	1	0	0	1	58.3847	-0.179213	-0.179325	-6.23307e-05	3	4.40647e-06	1.11774e-08
2	1	0	0	1	58.8447	-0.156213	-0.156357	-3.50717e-05	3	4.38578e-06	5.48371e-09
2	1	0	0	1	59.3047	-0.133212	-0.133324	-1.86955e-05	3	4.37463e-06	2.49255e-09
2	1	0	0	1	59.7647	-0.110211	-0.11038	-6.74932e-06	3	4.37018e-06	7.44993e-10
2	1	0	1	1	60.2249	-0.0872097	-0.0873948	4.47436e-06	3	4.37092e-06	-3.91035e-10
2	1	0	0	1	60.5286	-0.0719841	-0.0722689	2.35998e-06	3	4.37374e-06	-1.70553e-10