Folder: automated_analyisis/AutoAnalysis Examples/EC (part 16)

File: C003C-20ppb-A_C01.mpt
EC-Lab ASCII FILE
Nb header lines : 59

Cyclic Voltammetry

Run on channel : 1 (SN 22398)
User :
CE vs. WE compliance from -10 V to 10 V
Electrode connection : standard
Ewe ctrl range : min = -1.00 V, max = 1.00 V
Safety Limits :
	Ewe min = -2.00 V
	Ewe max = 2.00 V
	|I| = 50.000 mA
	for t > 10 ms
Acquisition started on : 11/21/2018 10:33:11
Technique started on : 11/21/2018 10:33:11
Saved on :
	File : C003C-20ppb-A_C01.mpr
	Directory : \\ECCOMPUTER\Users\Lab User\Google Drive\Electrochemical Data\EC-Lab\Data\FREDsense\Tim\2018.11.21 - EC comparison to High Throughput\
	Host : 172.16.1.30
Device : SP-50 (SN 0301030103010301)
Address : USB
EC-Lab for windows v11.02 (software)
Internet server v11.02 (firmware)
Command interpretor v11.02 (firmware)
Electrode material : Au/Pd
Initial state :
Electrolyte : NaCl (0.2M)
Comments : Fe(CN)63-/Fe(CN)64- 5.10-3 M
Reference electrode : SCE Saturated Calomel Electrode (0.241 V)
Electrode surface area : 0.001 cm²
Characteristic mass : 0.001 g
Equivalent Weight : 0.000 g/eq.
Density : 0.000 g/cm3
Cycle Definition : Charge/Discharge alternance
Ei (V)              -0.100
vs.                 Ref
dE/dt               50.000
dE/dt unit          mV/s
E1 (V)              0.300
vs.                 Ref
Step percent        50
N                   10
E range min (V)     -1.000
E range max (V)     1.000
I Range             Auto
I Range min         Unset
I Range max         Unset
I Range init        Unset
Bandwidth           5
E2 (V)              -0.200
vs.                 Ref
nc cycles           2
Reverse Scan        1
Ef (V)              0.000
vs.                 Eoc

mode	ox/red	error	control changes	counter inc.	time/s	control/V	Ewe/V	<I>/mA	cycle number	(Q-Qo)/C	P/W
2	1	0	1	0	0.000000000000000E+000	-0.0984885	-0.0988089	-0.000157625	1	0.0000000E+000	1.55748e-08
2	1	0	1	0	0.4865	-0.0741628	-0.0742575	4.84859e-05	1	1.89261e-08	-3.60044e-09
2	1	0	1	0	0.9465	-0.051162	-0.0512941	6.07994e-05	1	4.55471e-08	-3.11865e-09
2	1	0	1	0	1.4065	-0.0281612	-0.0282809	7.49765e-05	1	7.78208e-08	-2.1204e-09
2	1	0	1	0	1.8665	-0.00516042	-0.00520834	0.000119094	1	1.22119e-07	-6.20283e-10
2	1	0	1	0	2.3265	0.0178404	0.0177826	0.00028339	1	2.08264e-07	5.0394e-09
2	1	0	1	0	2.7865	0.0408411	0.0407067	0.000780134	1	4.37246e-07	3.17567e-08
2	1	0	1	0	3.2465	0.0638419	0.0637315	0.00160318	1	9.85961e-07	1.02173e-07
2	1	0	1	0	3.7065	0.0868426	0.0867861	0.00201958	1	1.84872e-06	1.75271e-07
2	1	0	1	0	4.1665	0.109843	0.109759	0.00187076	1	2.75707e-06	2.05333e-07
2	1	0	1	0	4.6265	0.132844	0.132714	0.00161569	1	3.55867e-06	2.14425e-07
2	1	0	1	0	5.0865	0.155845	0.155749	0.00142077	1	4.25526e-06	2.21284e-07
2	1	0	1	0	5.5465	0.178846	0.178719	0.00128867	1	4.87802e-06	2.30309e-07
2	1	0	0	0	6.0067	0.201847	0.201719	0.00119561	1	5.44949e-06	2.41177e-07
2	1	0	0	0	6.4667	0.224847	0.224718	0.00113183	1	5.98528e-06	2.54342e-07
2	1	0	0	0	6.9267	0.247848	0.247689	0.00108481	1	6.49557e-06	2.68695e-07
2	1	0	0	0	7.3867	0.270849	0.2707	0.00104987	1	6.98823e-06	2.842e-07
2	1	0	0	0	7.8467	0.29385	0.293733	0.00102829	1	7.46688e-06	3.02043e-07
2	0	0	1	0	8.2851	0.284249	0.284095	0.000787385	1	7.85884e-06	2.23692e-07
2	0	0	1	0	8.7451	0.261248	0.261073	0.000704559	1	8.19946e-06	1.83941e-07
2	0	0	1	0	9.2051	0.238248	0.238068	0.000647248	1	8.50871e-06	1.54089e-07
2	0	0	1	0	9.6651	0.215247	0.215144	0.000602542	1	8.79551e-06	1.29633e-07
2	0	0	0	0	10.1253	0.192246	0.19207	0.000566872	1	9.06329e-06	1.08879e-07
2	0	0	0	0	10.5853	0.169245	0.169111	0.000523328	1	9.31271e-06	8.85006e-08
2	0	0	0	0	11.0453	0.146245	0.146087	0.000475452	1	9.5421e-06	6.94575e-08
2	0	0	0	0	11.5053	0.123244	0.123134	0.000407043	1	9.74537e-06	5.01206e-08
2	0	0	0	0	11.9653	0.100243	0.100096	0.000260305	1	9.90223e-06	2.60555e-08
2	0	0	0	0	12.4253	0.0772423	0.0770923	-0.000100434	1	9.95051e-06	-7.74266e-09
2	0	0	0	0	12.8853	0.0542416	0.0540993	-0.000842451	1	9.74585e-06	-4.5576e-08
2	0	0	0	0	13.3453	0.0312408	0.0310532	-0.00150554	1	9.18243e-06	-4.67518e-08
2	0	0	0	0	13.8053	0.00824003	0.00811424	-0.00143994	1	8.48007e-06	-1.1684e-08
2	0	0	0	0	14.2653	-0.0147607	-0.0149032	-0.00111435	1	7.89226e-06	1.66074e-08
2	0	0	0	0	14.7253	-0.0377615	-0.0379068	-0.000871843	1	7.43878e-06	3.30488e-08
2	0	0	0	0	15.1853	-0.0607623	-0.060938	-0.000719907	1	7.07403e-06	4.38697e-08
2	0	0	0	0	15.6453	-0.0837631	-0.0839321	-0.000619835	1	6.76617e-06	5.20241e-08
2	0	0	1	0	16.1055	-0.106764	-0.106892	-0.000549268	1	6.49698e-06	5.87125e-08
2	0	0	1	0	16.5655	-0.129765	-0.129896	-0.000500314	1	6.25566e-06	6.49888e-08
2	0	0	1	0	17.0255	-0.152765	-0.152825	-0.000458136	1	6.03516e-06	7.00148e-08
2	0	0	1	0	17.4855	-0.175766	-0.175901	-0.000428634	1	5.83052e-06	7.53971e-08
2	0	0	1	0	17.9455	-0.198767	-0.19889	-0.000407961	1	5.6375e-06	8.11394e-08
2	1	0	1	1	18.3959	-0.178716	-0.178851	-0.00022222	1	5.52024e-06	3.97443e-08
2	1	0	1	1	18.8559	-0.155716	-0.155778	-0.000181653	1	5.42893e-06	2.82974e-08
2	1	0	1	1	19.3159	-0.132715	-0.132828	-0.000155346	1	5.3533e-06	2.06343e-08
2	1	0	1	1	19.7759	-0.109714	-0.10979	-0.000129461	1	5.28961e-06	1.42135e-08
2	1	0	0	1	20.2361	-0.0867132	-0.0868655	-0.00011085	2	5.23574e-06	9.62905e-09
2	1	0	0	1	20.6961	-0.0637124	-0.0638778	-9.33522e-05	2	5.19032e-06	5.96313e-09
2	1	0	0	1	21.1561	-0.0407116	-0.0408052	-7.10779e-05	2	5.15348e-06	2.90035e-09
2	1	0	0	1	21.6161	-0.0177108	-0.0178079	-3.89207e-05	2	5.12835e-06	6.93097e-10
2	1	0	0	1	22.0761	0.00528993	0.00521692	5.28701e-05	2	5.12931e-06	2.75819e-10
2	1	0	0	1	22.5361	0.0282907	0.0281654	0.000337585	2	5.20963e-06	9.50822e-09
2	1	0	0	1	22.9961	0.0512915	0.0511956	0.000996475	2	5.5039e-06	5.10151e-08
2	1	0	0	1	23.4561	0.0742922	0.0741939	0.00171158	2	6.14038e-06	1.26989e-07
2	1	0	0	1	23.9161	0.097293	0.0971944	0.0018592	2	6.98699e-06	1.80704e-07
2	1	0	0	1	24.3761	0.120294	0.12021	0.00163783	2	7.79826e-06	1.96883e-07
2	1	0	0	1	24.8361	0.143295	0.14314	0.00140199	2	8.49637e-06	2.00681e-07
2	1	0	0	1	25.2961	0.166295	0.16616	0.00123404	2	9.10142e-06	2.05048e-07
2	1	0	0	1	25.7561	0.189296	0.18915	0.00111726	2	9.64167e-06	2.11329e-07
2	1	0	1	1	26.2163	0.212297	0.212183	0.001035	2	1.01369e-05	2.19609e-07
2	1	0	1	1	26.6763	0.235298	0.23513	0.00097537	2	1.06e-05	2.29339e-07
2	1	0	1	1	27.1363	0.258298	0.258141	0.000931963	2	1.10393e-05	2.40578e-07
2	1	0	1	1	27.5963	0.281299	0.281197	0.000903059	2	1.14621e-05	2.53938e-07
2	0	0	1	1	28.0357	0.29675	0.296585	0.000757291	2	1.18494e-05	2.24601e-07
2	0	0	1	1	28.4957	0.273749	0.273611	0.000650542	2	1.21685e-05	1.77995e-07
2	0	0	1	1	28.9557	0.250748	0.250614	0.000596904	2	1.24538e-05	1.49593e-07
2	0	0	1	1	29.4157	0.227747	0.227563	0.000553316	2	1.27173e-05	1.25914e-07
2	0	0	1	1	29.8757	0.204747	0.204622	0.000517505	2	1.2963e-05	1.05893e-07
2	0	0	0	1	30.3359	0.181746	0.181576	0.000482057	2	1.31923e-05	8.75299e-08
2	0	0	0	1	30.7959	0.158745	0.158622	0.00044415	2	1.34044e-05	7.0452e-08
2	0	0	0	1	31.2559	0.135744	0.135577	0.00039238	2	1.35964e-05	5.31978e-08
2	0	0	0	1	31.7159	0.112744	0.112586	0.000302509	2	1.37578e-05	3.40584e-08
2	0	0	0	1	32.1759	0.0897427	0.0896452	9.58394e-05	2	1.3856e-05	8.59155e-09
2	0	0	0	1	32.6359	0.066742	0.0665748	-0.000409044	2	1.37982e-05	-2.7232e-08
2	0	0	0	1	33.0959	0.0437412	0.0436008	-0.00121942	2	1.3425e-05	-5.31678e-08
2	0	0	0	1	33.5559	0.0207404	0.0205845	-0.00160097	2	1.27444e-05	-3.29552e-08
[...]
2	1	0	1	0	39.5265	-0.122214	-0.122267	-0.00017559	2	8.909e-06	2.1469e-08
2	1	0	1	0	39.9865	-0.0992136	-0.0993464	-0.000151278	3	8.83514e-06	1.50289e-08
2	1	0	0	0	40.4467	-0.0762128	-0.0763003	-0.000133826	3	8.77087e-06	1.02109e-08
2	1	0	0	0	40.9067	-0.053212	-0.05339	-0.000113203	3	8.71549e-06	6.0439e-09
2	1	0	0	0	41.3667	-0.0302113	-0.0303587	-8.70426e-05	3	8.67026e-06	2.6425e-09
2	1	0	0	0	41.8267	-0.00721049	-0.00727029	-3.40631e-05	3	8.64194e-06	2.47649e-10
2	1	0	0	0	42.2867	0.0157903	0.0157068	0.000124955	3	8.65756e-06	1.96265e-09
2	1	0	0	0	42.7467	0.038791	0.0387253	0.000556242	3	8.80165e-06	2.15406e-08
2	1	0	0	0	43.2067	0.0617918	0.0617502	0.00130447	3	9.22654e-06	8.05511e-08
2	1	0	0	0	43.6667	0.0847926	0.0846828	0.00181038	3	9.96659e-06	1.53308e-07
2	1	0	0	0	44.1267	0.107793	0.107647	0.0017517	3	1.08027e-05	1.88566e-07
2	1	0	0	0	44.5867	0.130794	0.130673	0.00150422	3	1.15533e-05	1.96561e-07
2	1	0	0	0	45.0467	0.153795	0.153764	0.00129674	3	1.21961e-05	1.99391e-07
2	1	0	0	0	45.5067	0.176796	0.176719	0.0011548	3	1.27593e-05	2.04075e-07
2	1	0	1	0	45.9669	0.199796	0.199659	0.0010525	3	1.32668e-05	2.10141e-07
2	1	0	1	0	46.4269	0.222797	0.222662	0.000980786	3	1.37351e-05	2.18384e-07
2	1	0	1	0	46.8869	0.245798	0.245614	0.000925171	3	1.41743e-05	2.27235e-07
2	1	0	1	0	47.3469	0.268799	0.268751	0.000885424	3	1.45911e-05	2.37959e-07
2	1	0	1	0	47.8069	0.291799	0.291675	0.000859262	3	1.49927e-05	2.50625e-07
2	0	0	1	0	48.2463	0.286249	0.28606	0.000663879	3	1.53264e-05	1.89909e-07
2	0	0	1	0	48.7063	0.263249	0.263091	0.000597174	3	1.56148e-05	1.57111e-07
2	0	0	1	0	49.1663	0.240248	0.24006	0.000553196	3	1.58782e-05	1.328e-07
2	0	0	1	0	49.6263	0.217247	0.217105	0.0005153	3	1.6123e-05	1.11874e-07
2	0	0	0	0	50.0865	0.194246	0.194105	0.000480234	3	1.63513e-05	9.32155e-08
2	0	0	0	0	50.5465	0.171245	0.171177	0.000443175	3	1.6563e-05	7.58614e-08
2	0	0	0	0	51.0065	0.148245	0.148076	0.000401334	3	1.67569e-05	5.9428e-08
2	0	0	0	0	51.4665	0.125244	0.125133	0.000339731	3	1.69277e-05	4.25115e-08
2	0	0	0	0	51.9265	0.102243	0.102097	0.000214361	3	1.70582e-05	2.18857e-08
2	0	0	0	0	52.3865	0.0792424	0.0791532	-9.29742e-05	3	1.70959e-05	-7.3592e-09
2	0	0	0	0	52.8465	0.0562416	0.0561379	-0.000757699	3	1.69134e-05	-4.25356e-08
2	0	0	0	0	53.3065	0.0332409	0.0331289	-0.00148637	3	1.63816e-05	-4.9242e-08
2	0	0	0	0	53.7665	0.0102401	0.0101211	-0.00155161	3	1.56543e-05	-1.57039e-08
2	0	0	0	0	54.2265	-0.0127607	-0.0129335	-0.00123984	3	1.50092e-05	1.60354e-08
2	0	0	0	0	54.6865	-0.0357614	-0.0359488	-0.000978795	3	1.45023e-05	3.51865e-08
2	0	0	0	0	55.1465	-0.0587622	-0.058944	-0.000815605	3	1.40914e-05	4.8075e-08
2	0	0	0	0	55.6065	-0.081763	-0.0818893	-0.000706194	3	1.37424e-05	5.78298e-08
2	0	0	1	0	56.0667	-0.104764	-0.104927	-0.00062786	3	1.34356e-05	6.58794e-08
2	0	0	1	0	56.5267	-0.127765	-0.127898	-0.000571569	3	1.31593e-05	7.31023e-08
2	0	0	1	0	56.9867	-0.150765	-0.150894	-0.000525586	3	1.29062e-05	7.93077e-08
2	0	0	1	0	57.4467	-0.173766	-0.173909	-0.000491021	3	1.26715e-05	8.53931e-08
2	0	0	1	0	57.9067	-0.196767	-0.196903	-0.00046739	3	1.24505e-05	9.20306e-08
2	1	0	1	1	58.3571	-0.180716	-0.180866	-0.000279963	3	1.23021e-05	5.06357e-08
2	1	0	1	1	58.8171	-0.157716	-0.15782	-0.000234969	3	1.21859e-05	3.70828e-08
2	1	0	1	1	59.2771	-0.134715	-0.134838	-0.00020212	3	1.20868e-05	2.72535e-08
2	1	0	1	1	59.7371	-0.111714	-0.111845	-0.000176292	3	1.20011e-05	1.97174e-08
2	1	0	0	1	60.1973	-0.0887132	-0.0888183	-0.000154715	3	1.19262e-05	1.37415e-08
2	1	0	0	1	60.6573	-0.0657125	-0.0658104	-0.000135797	3	1.18605e-05	8.93685e-09
2	1	0	0	1	60.7396	-0.0615873	-0.0616557	-0.000122341	3	1.18497e-05	7.54299e-09

File: C003C-20ppb-B_C01.mpt
EC-Lab ASCII FILE
Nb header lines : 59

Cyclic Voltammetry

Run on channel : 1 (SN 22398)
User :
CE vs. WE compliance from -10 V to 10 V
Electrode connection : standard
Ewe ctrl range : min = -1.00 V, max = 1.00 V
Safety Limits :
	Ewe min = -2.00 V
	Ewe max = 2.00 V
	|I| = 50.000 mA
	for t > 10 ms
Acquisition started on : 11/21/2018 11:33:11
Technique started on : 11/21/2018 11:33:11
Saved on :
	File : C003C-20ppb-B_C01.mpr
	Directory : \\ECCOMPUTER\Users\Lab User\Google Drive\Electrochemical Data\EC-Lab\Data\FREDsense\Tim\2018.11.21 - EC comparison to High Throughput\
	Host : 172.16.1.30
Device : SP-50 (SN 0301030103010301)
Address : USB
EC-Lab for windows v11.02 (software)
Internet server v11.02 (firmware)
Command interpretor v11.02 (firmware)
Electrode material : Au/Pd
Initial state :
Electrolyte : NaCl (0.2M)
Comments : Fe(CN)63-/Fe(CN)64- 5.10-3 M
Reference electrode : SCE Saturated Calomel Electrode (0.241 V)
Electrode surface area : 0.001 cm²
Characteristic mass : 0.001 g
Equivalent Weight : 0.000 g/eq.
Density : 0.000 g/cm3
Cycle Definition : Charge/Discharge alternance
Ei (V)              -0.100
vs.                 Ref
dE/dt               50.000
dE/dt unit          mV/s
E1 (V)              0.300
vs.                 Ref
Step percent        50
N                   10
E range min (V)     -1.000
E range max (V)     1.000
I Range             Auto
I Range min         Unset
I Range max         Unset
I Range init        Unset
Bandwidth           5
E2 (V)              -0.200
vs.                 Ref
nc cycles           2
Reverse Scan        1
Ef (V)              0.000
vs.                 Eoc

mode	ox/red	error	control changes	counter inc.	time/s	control/V	Ewe/V	<I>/mA	cycle number	(Q-Qo)/C	P/W
2	1	0	1	0	0.000000000000000E+000	-0.0984851	-0.098793	-8.06846e-05	1	0.0000000E+000	7.97107e-09
2	1	0	1	0	0.4865	-0.0741592	-0.0743889	4.0553e-05	1	1.36461e-08	-3.01669e-09
2	1	0	1	0	0.9465	-0.0511582	-0.0514033	5.46665e-05	1	3.71657e-08	-2.81004e-09
2	1	0	1	0	1.4065	-0.0281573	-0.0284198	6.96579e-05	1	6.67561e-08	-1.97966e-09
2	1	0	1	0	1.8665	-0.00515635	-0.00539706	0.000114901	1	1.08618e-07	-6.20126e-10
2	1	0	1	0	2.3265	0.0178446	0.0176564	0.000277616	1	1.92588e-07	4.90169e-09
2	1	0	1	0	2.7865	0.0408455	0.0406378	0.000761041	1	4.16645e-07	3.0927e-08
2	1	0	1	0	3.2465	0.0638464	0.0636859	0.00156751	1	9.51259e-07	9.9828e-08
2	1	0	1	0	3.7065	0.0868473	0.0866938	0.002013	1	1.80213e-06	1.74515e-07
2	1	0	1	0	4.1665	0.109848	0.109647	0.00189338	1	2.71537e-06	2.07603e-07
2	1	0	1	0	4.6265	0.132849	0.132663	0.00163689	1	3.52763e-06	2.17155e-07
2	1	0	0	0	5.0867	0.15585	0.155677	0.00143813	1	4.23381e-06	2.23884e-07
2	1	0	0	0	5.5467	0.178851	0.178671	0.00130136	1	4.86383e-06	2.32515e-07
2	1	0	0	0	6.0067	0.201852	0.20166	0.0012049	1	5.44057e-06	2.42979e-07
2	1	0	0	0	6.4667	0.224853	0.224671	0.00113917	1	5.98034e-06	2.55938e-07
2	1	0	0	0	6.9267	0.247854	0.247685	0.00108926	1	6.49335e-06	2.69794e-07
2	1	0	0	0	7.3867	0.270855	0.270704	0.00105565	1	6.98774e-06	2.85769e-07
2	1	0	0	0	7.8467	0.293856	0.29372	0.0010259	1	7.4672e-06	3.01328e-07
2	0	0	1	0	8.2953	0.283705	0.283552	0.000806784	1	7.87154e-06	2.28765e-07
2	0	0	1	0	8.7553	0.260704	0.260536	0.000722726	1	8.2199e-06	1.88296e-07
2	0	0	1	0	9.2153	0.237703	0.237537	0.000666389	1	8.53796e-06	1.58292e-07
2	0	0	1	0	9.6753	0.214702	0.214538	0.000624833	1	8.83391e-06	1.3405e-07
2	0	0	1	0	10.1353	0.191702	0.19147	0.00058357	1	9.11084e-06	1.11736e-07
2	0	0	1	0	10.5953	0.168701	0.168512	0.000544103	1	9.36932e-06	9.16877e-08
2	0	0	0	0	11.0555	0.1457	0.145507	0.000494753	1	9.60768e-06	7.19901e-08
2	0	0	0	0	11.5155	0.122699	0.122463	0.000423622	1	9.81916e-06	5.18781e-08
2	0	0	0	0	11.9755	0.0996979	0.0995092	0.000276526	1	9.9835e-06	2.75169e-08
2	0	0	0	0	12.4355	0.0766969	0.0765162	-7.74175e-05	1	1.00403e-05	-5.92369e-09
2	0	0	0	0	12.8955	0.053696	0.0534786	-0.000785905	1	9.85323e-06	-4.20291e-08
2	0	0	0	0	13.3555	0.0306951	0.0304782	-0.00145488	1	9.31709e-06	-4.4342e-08
2	0	0	0	0	13.8155	0.00769417	0.00744591	-0.00144227	1	8.62534e-06	-1.0739e-08
2	0	0	0	0	14.2755	-0.0153068	-0.0155429	-0.00112651	1	8.03252e-06	1.75092e-08
2	0	0	0	0	14.7355	-0.0383077	-0.0385561	-0.00088093	1	7.57404e-06	3.39652e-08
2	0	0	0	0	15.1955	-0.0613086	-0.0615078	-0.000721391	1	7.20718e-06	4.43712e-08
2	0	0	0	0	15.6555	-0.0843096	-0.0845199	-0.000618027	1	6.89917e-06	5.22356e-08
2	0	0	1	0	16.1157	-0.107311	-0.107525	-0.000547632	1	6.6311e-06	5.88839e-08
2	0	0	1	0	16.5757	-0.130311	-0.130527	-0.000491913	1	6.39187e-06	6.4208e-08
2	0	0	1	0	17.0357	-0.153312	-0.153518	-0.000451016	1	6.17422e-06	6.92391e-08
2	0	0	1	0	17.4957	-0.176313	-0.176547	-0.000419544	1	5.97304e-06	7.40693e-08
2	0	0	1	0	17.9557	-0.199314	-0.199556	-0.000398011	1	5.78408e-06	7.94256e-08
2	1	0	0	1	18.4051	-0.178213	-0.178392	-0.00022958	1	5.6667e-06	4.09552e-08
2	1	0	0	1	18.8651	-0.155212	-0.155443	-0.000189601	1	5.57272e-06	2.94723e-08
2	1	0	0	1	19.3251	-0.132212	-0.132344	-0.00015822	1	5.49435e-06	2.09395e-08
2	1	0	0	1	19.7851	-0.109211	-0.109387	-0.000135802	1	5.42805e-06	1.4855e-08
2	1	0	1	1	20.2453	-0.0862097	-0.0864228	-0.000116301	2	5.37159e-06	1.00511e-08
2	1	0	1	1	20.7053	-0.0632087	-0.0634425	-9.68444e-05	2	5.3238e-06	6.14405e-09
2	1	0	1	1	21.1653	-0.0402078	-0.0404155	-7.77161e-05	2	5.28486e-06	3.14094e-09
2	1	0	1	1	21.6253	-0.0172068	-0.0174607	-4.11305e-05	2	5.25816e-06	7.18165e-10
2	1	0	1	1	22.0853	0.00579409	0.00563097	5.45835e-05	2	5.25872e-06	3.07358e-10
2	1	0	1	1	22.5453	0.028795	0.0286484	0.000344599	2	5.34043e-06	9.87221e-09
2	1	0	1	1	23.0053	0.0517959	0.0516414	0.000996989	2	5.63589e-06	5.14859e-08
2	1	0	1	1	23.4653	0.0747969	0.0746133	0.00170615	2	6.2706e-06	1.27302e-07
2	1	0	1	1	23.9253	0.0977978	0.0976614	0.00187964	2	7.12082e-06	1.83569e-07
2	1	0	1	1	24.3853	0.120799	0.120601	0.0016644	2	7.94286e-06	2.00729e-07
2	1	0	1	1	24.8453	0.1438	0.143646	0.0014236	2	8.65226e-06	2.04495e-07
2	1	0	0	1	25.3055	0.166801	0.166616	0.00125493	2	9.26765e-06	2.09092e-07
2	1	0	0	1	25.7655	0.189801	0.189642	0.00113292	2	9.81663e-06	2.14848e-07
2	1	0	0	1	26.2255	0.212802	0.212639	0.00105097	2	1.03192e-05	2.23478e-07
2	1	0	0	1	26.6855	0.235803	0.235616	0.000989517	2	1.07889e-05	2.33147e-07
2	1	0	0	1	27.1455	0.258804	0.258644	0.000941993	2	1.12337e-05	2.43641e-07
2	1	0	0	1	27.6055	0.281805	0.281654	0.000913363	2	1.16611e-05	2.57253e-07
2	0	0	0	1	28.0551	0.295706	0.295433	0.000771124	2	1.20588e-05	2.27815e-07
2	0	0	0	1	28.5151	0.272705	0.272466	0.000672386	2	1.23865e-05	1.83203e-07
2	0	0	0	1	28.9751	0.249704	0.249471	0.000620233	2	1.26821e-05	1.5473e-07
2	0	0	0	1	29.4351	0.226703	0.226452	0.00057771	2	1.29562e-05	1.30823e-07
2	0	0	0	1	29.8951	0.203702	0.203452	0.000539618	2	1.32127e-05	1.09787e-07
2	0	0	0	1	30.3551	0.180701	0.180473	0.000505482	2	1.34524e-05	9.1226e-08
2	0	0	0	1	30.8151	0.1577	0.157509	0.000465543	2	1.36748e-05	7.3327e-08
2	0	0	1	1	31.2753	0.134699	0.134458	0.000412454	2	1.38765e-05	5.54578e-08
2	0	0	1	1	31.7353	0.111698	0.111434	0.000318801	2	1.40464e-05	3.55251e-08
2	0	0	1	1	32.1953	0.0886974	0.0885104	0.000106159	2	1.41509e-05	9.39615e-09
2	0	0	1	1	32.6553	0.0656965	0.0654813	-0.000395116	2	1.4098e-05	-2.58727e-08
2	0	0	1	1	33.1153	0.0426956	0.0425169	-0.00118906	2	1.37344e-05	-5.0555e-08
2	0	0	1	1	33.5753	0.0196946	0.0195165	-0.00158521	2	1.30666e-05	-3.09378e-08
[...]
2	1	0	1	0	39.5449	-0.121211	-0.121392	-0.000182864	2	9.24263e-06	2.21983e-08
2	1	0	0	0	40.0051	-0.0982101	-0.0983588	-0.000158562	3	9.16587e-06	1.5596e-08
2	1	0	0	0	40.4651	-0.0752092	-0.0754145	-0.000137853	3	9.09886e-06	1.03961e-08
2	1	0	0	0	40.9251	-0.0522083	-0.0524374	-0.000117112	3	9.04096e-06	6.14104e-09
2	1	0	0	0	41.3851	-0.0292073	-0.0293818	-8.95986e-05	3	8.99365e-06	2.63256e-09
2	1	0	0	0	41.8451	-0.0062064	-0.0064343	-3.47273e-05	3	8.96436e-06	2.23446e-10
2	1	0	0	0	42.3051	0.0167945	0.0165768	0.000132681	3	8.98177e-06	2.19942e-09
2	1	0	0	0	42.7651	0.0397955	0.0396133	0.000578498	3	9.1324e-06	2.29162e-08
2	1	0	0	0	43.2251	0.0627964	0.0626445	0.0013245	3	9.56663e-06	8.29724e-08
2	1	0	0	0	43.6851	0.0857973	0.0855877	0.00182795	3	1.0315e-05	1.5645e-07
2	1	0	0	0	44.1451	0.108798	0.108643	0.0017733	3	1.11607e-05	1.92657e-07
2	1	0	0	0	44.6051	0.131799	0.131671	0.00152618	3	1.19218e-05	2.00954e-07
2	1	0	1	0	45.0653	0.1548	0.154653	0.00131819	3	1.25747e-05	2.03861e-07
2	1	0	1	0	45.5253	0.177801	0.17768	0.00117191	3	1.31468e-05	2.08224e-07
2	1	0	1	0	45.9853	0.200802	0.200589	0.00106876	3	1.36622e-05	2.14382e-07
2	1	0	1	0	46.4453	0.223803	0.223661	0.00099589	3	1.41376e-05	2.22742e-07
2	1	0	1	0	46.9053	0.246804	0.246662	0.000937693	3	1.4583e-05	2.31293e-07
2	1	0	1	0	47.3653	0.269805	0.269645	0.00089507	3	1.50052e-05	2.41352e-07
2	1	0	1	0	47.8253	0.292806	0.292651	0.000867954	3	1.54115e-05	2.54008e-07
2	0	0	1	0	48.2749	0.284705	0.2845	0.00068374	3	1.57565e-05	1.94524e-07
2	0	0	1	0	48.7349	0.261704	0.261527	0.000622008	3	1.60549e-05	1.62672e-07
2	0	0	1	0	49.1949	0.238703	0.238433	0.000576435	3	1.63292e-05	1.37441e-07
2	0	0	1	0	49.6549	0.215703	0.215529	0.000539977	3	1.6585e-05	1.16381e-07
2	0	0	1	0	50.1149	0.192702	0.192523	0.000504606	3	1.68241e-05	9.71486e-08
2	0	0	1	0	50.5749	0.169701	0.169503	0.000466477	3	1.70466e-05	7.90692e-08
2	0	0	0	0	51.0351	0.1467	0.146511	0.000422907	3	1.72508e-05	6.19605e-08
2	0	0	0	0	51.4951	0.123699	0.123468	0.000356637	3	1.74307e-05	4.40333e-08
2	0	0	0	0	51.9551	0.100698	0.100455	0.00022597	3	1.75681e-05	2.26998e-08
2	0	0	0	0	52.4151	0.077697	0.0774915	-9.4541e-05	3	1.7608e-05	-7.32612e-09
2	0	0	0	0	52.8751	0.0546961	0.0544879	-0.000764037	3	1.7423e-05	-4.16307e-08
2	0	0	0	0	53.3351	0.0316951	0.0314715	-0.00147736	3	1.6892e-05	-4.64948e-08
2	0	0	0	0	53.7951	0.00869421	0.00848483	-0.00154583	3	1.61692e-05	-1.31161e-08
2	0	0	0	0	54.2551	-0.0143067	-0.0145665	-0.00124027	3	1.55247e-05	1.80665e-08
2	0	0	0	0	54.7151	-0.0373077	-0.0375447	-0.000977983	3	1.50175e-05	3.67181e-08
2	0	0	0	0	55.1751	-0.0603086	-0.0605378	-0.000812984	3	1.46074e-05	4.92162e-08
2	0	0	0	0	55.6351	-0.0833095	-0.0835149	-0.000701439	3	1.426e-05	5.85806e-08
2	0	0	1	0	56.0953	-0.10631	-0.106548	-0.000621349	3	1.39555e-05	6.62037e-08
2	0	0	1	0	56.5553	-0.129311	-0.129561	-0.000565377	3	1.36821e-05	7.32511e-08
2	0	0	1	0	57.0153	-0.152312	-0.152541	-0.000516828	3	1.34326e-05	7.88373e-08
2	0	0	1	0	57.4753	-0.175313	-0.175519	-0.000482348	3	1.32018e-05	8.46612e-08
2	0	0	1	0	57.9353	-0.198314	-0.198536	-0.000456099	3	1.29852e-05	9.05523e-08
2	1	0	0	1	58.3847	-0.179213	-0.179391	-0.000284416	3	1.28399e-05	5.10216e-08
2	1	0	0	1	58.8447	-0.156213	-0.156468	-0.00024192	3	1.27207e-05	3.78529e-08
2	1	0	0	1	59.3047	-0.133212	-0.133403	-0.000211943	3	1.26181e-05	2.82739e-08
2	1	0	0	1	59.7647	-0.110211	-0.110437	-0.000184069	3	1.25289e-05	2.0328e-08
2	1	0	1	1	60.2249	-0.0872097	-0.0873759	-0.000163529	3	1.24504e-05	1.42885e-08
2	1	0	1	1	60.6849	-0.0642088	-0.0644475	-0.000142154	3	1.23815e-05	9.16148e-09
2	1	0	0	1	60.8874	-0.0540833	-0.0542777	-0.000130989	3	1.23541e-05	7.10977e-09