Folder: automated_analyisis/AutoAnalysis Examples/EC (part 13)

File: C003C-0ppb-A_C01.mpt
EC-Lab ASCII FILE
Nb header lines : 59

Cyclic Voltammetry

Run on channel : 1 (SN 22398)
User :
CE vs. WE compliance from -10 V to 10 V
Electrode connection : standard
Ewe ctrl range : min = -1.00 V, max = 1.00 V
Safety Limits :
	Ewe min = -2.00 V
	Ewe max = 2.00 V
	|I| = 50.000 mA
	for t > 10 ms
Acquisition started on : 11/21/2018 10:25:16
Technique started on : 11/21/2018 10:25:16
Saved on :
	File : C003C-0ppb-A_C01.mpr
	Directory : \\ECCOMPUTER\Users\Lab User\Google Drive\Electrochemical Data\EC-Lab\Data\FREDsense\Tim\2018.11.21 - EC comparison to High Throughput\
	Host : 172.16.1.30
Device : SP-50 (SN 0301030103010301)
Address : USB
EC-Lab for windows v11.02 (software)
Internet server v11.02 (firmware)
Command interpretor v11.02 (firmware)
Electrode material : Au/Pd
Initial state :
Electrolyte : NaCl (0.2M)
Comments : Fe(CN)63-/Fe(CN)64- 5.10-3 M
Reference electrode : SCE Saturated Calomel Electrode (0.241 V)
Electrode surface area : 0.001 cm²
Characteristic mass : 0.001 g
Equivalent Weight : 0.000 g/eq.
Density : 0.000 g/cm3
Cycle Definition : Charge/Discharge alternance
Ei (V)              -0.100
vs.                 Ref
dE/dt               50.000
dE/dt unit          mV/s
E1 (V)              0.300
vs.                 Ref
Step percent        50
N                   10
E range min (V)     -1.000
E range max (V)     1.000
I Range             Auto
I Range min         Unset
I Range max         Unset
I Range init        Unset
Bandwidth           5
E2 (V)              -0.200
vs.                 Ref
nc cycles           2
Reverse Scan        1
Ef (V)              0.000
vs.                 Eoc

mode	ox/red	error	control changes	counter inc.	time/s	control/V	Ewe/V	<I>/mA	cycle number	(Q-Qo)/C	P/W
2	1	0	1	0	0.000000000000000E+000	-0.0984933	-0.0987497	-7.49617e-05	1	0.0000000E+000	7.40245e-09
2	1	0	1	0	0.4865	-0.0741673	-0.0742937	4.95422e-05	1	1.9587e-08	-3.68067e-09
2	1	0	1	0	0.9465	-0.0511664	-0.0512031	6.19794e-05	1	4.67187e-08	-3.17354e-09
2	1	0	1	0	1.4065	-0.0281655	-0.0282525	7.60328e-05	1	7.93004e-08	-2.14812e-09
2	1	0	1	0	1.8665	-0.00516453	-0.00527323	0.000119433	1	1.23801e-07	-6.29798e-10
2	1	0	1	0	2.3265	0.0178364	0.0177368	0.000286207	1	2.10715e-07	5.0764e-09
2	1	0	1	0	2.7865	0.0408373	0.0407595	0.000790861	1	4.42638e-07	3.22351e-08
2	1	0	1	0	3.2465	0.0638382	0.0637981	0.00163519	1	1.00005e-06	1.04322e-07
2	1	0	1	0	3.7065	0.0868392	0.0867095	0.00207022	1	1.88255e-06	1.79508e-07
2	1	0	1	0	4.1665	0.10984	0.109749	0.00191005	1	2.81274e-06	2.09627e-07
2	1	0	1	0	4.6265	0.132841	0.132785	0.00163533	1	3.62758e-06	2.17147e-07
2	1	0	0	0	5.0867	0.155842	0.155752	0.00143116	1	4.33132e-06	2.22907e-07
2	1	0	0	0	5.5467	0.178843	0.178768	0.00129829	1	4.95846e-06	2.32092e-07
2	1	0	0	0	6.0067	0.201844	0.201717	0.00120322	1	5.53337e-06	2.42711e-07
2	1	0	0	0	6.4667	0.224845	0.224743	0.00113924	1	6.07253e-06	2.56035e-07
2	1	0	0	0	6.9267	0.247846	0.247722	0.00109063	1	6.586e-06	2.70175e-07
2	1	0	0	0	7.3867	0.270847	0.270782	0.00105439	1	7.08063e-06	2.85509e-07
2	1	0	0	0	7.8467	0.293847	0.29373	0.00103541	1	7.56248e-06	3.04131e-07
2	0	0	1	0	8.2853	0.284247	0.28408	0.000794366	1	7.9561e-06	2.25664e-07
2	0	0	1	0	8.7453	0.261246	0.261112	0.000705087	1	8.29778e-06	1.84106e-07
2	0	0	1	0	9.2053	0.238245	0.238098	0.000648481	1	8.60704e-06	1.54402e-07
2	0	0	1	0	9.6653	0.215244	0.2151	0.000604231	1	8.89392e-06	1.2997e-07
2	0	0	1	0	10.1253	0.192243	0.192082	0.000566398	1	9.16199e-06	1.08795e-07
2	0	0	1	0	10.5853	0.169242	0.169126	0.000525386	1	9.41191e-06	8.88563e-08
2	0	0	0	0	11.0455	0.146242	0.146089	0.000478626	1	9.64203e-06	6.99221e-08
2	0	0	0	0	11.5055	0.123241	0.123126	0.000407458	1	9.84617e-06	5.01686e-08
2	0	0	0	0	11.9655	0.10024	0.100114	0.000261365	1	1.00036e-05	2.61662e-08
2	0	0	0	0	12.4255	0.0772388	0.0771313	-0.000107271	1	1.00507e-05	-8.27398e-09
2	0	0	0	0	12.8855	0.0542379	0.0541605	-0.000866548	1	9.83932e-06	-4.69327e-08
2	0	0	0	0	13.3455	0.0312369	0.0311145	-0.00154392	1	9.26069e-06	-4.80383e-08
2	0	0	0	0	13.8055	0.00823601	0.00812357	-0.0014698	1	8.54122e-06	-1.194e-08
2	0	0	0	0	14.2655	-0.0147649	-0.0149225	-0.00112675	1	7.94417e-06	1.68139e-08
2	0	0	0	0	14.7255	-0.0377659	-0.0379261	-0.000878105	1	7.48664e-06	3.33031e-08
2	0	0	0	0	15.1855	-0.0607668	-0.0609542	-0.00072802	1	7.11914e-06	4.43759e-08
2	0	0	0	0	15.6455	-0.0837677	-0.0839239	-0.000624538	1	6.80871e-06	5.24136e-08
2	0	0	1	0	16.1057	-0.106769	-0.106896	-0.000556111	1	6.53694e-06	5.94459e-08
2	0	0	1	0	16.5657	-0.12977	-0.129857	-0.000504649	1	6.29299e-06	6.55322e-08
2	0	0	1	0	17.0257	-0.152771	-0.152874	-0.000465131	1	6.06979e-06	7.11066e-08
2	0	0	1	0	17.4857	-0.175771	-0.175862	-0.000435077	1	5.86238e-06	7.65136e-08
2	0	0	1	0	17.9457	-0.198772	-0.198853	-0.000412199	1	5.66652e-06	8.1967e-08
2	1	0	1	1	18.3961	-0.178722	-0.1788	-0.000222548	1	5.54829e-06	3.97916e-08
2	1	0	1	1	18.8561	-0.155721	-0.155761	-0.000183301	1	5.45631e-06	2.85511e-08
2	1	0	1	1	19.3161	-0.13272	-0.132801	-0.000153678	1	5.38005e-06	2.04086e-08
2	1	0	1	1	19.7761	-0.109719	-0.109822	-0.000130759	1	5.31575e-06	1.43602e-08
2	1	0	0	1	20.2363	-0.0867178	-0.0867873	-0.000112684	2	5.26106e-06	9.7795e-09
2	1	0	0	1	20.6963	-0.0637169	-0.0638419	-9.46081e-05	2	5.21481e-06	6.03997e-09
2	1	0	0	1	21.1563	-0.040716	-0.0408075	-7.34255e-05	2	5.17706e-06	2.99631e-09
2	1	0	0	1	21.6163	-0.017715	-0.0178336	-4.12647e-05	2	5.15098e-06	7.35898e-10
2	1	0	0	1	22.0763	0.00528589	0.00519762	5.36049e-05	2	5.15118e-06	2.78618e-10
2	1	0	0	1	22.5363	0.0282868	0.0281811	0.000342858	2	5.23203e-06	9.66211e-09
2	1	0	0	1	22.9963	0.0512877	0.0512219	0.00101504	2	5.53122e-06	5.19924e-08
2	1	0	0	1	23.4563	0.0742887	0.0741969	0.00174324	2	6.18012e-06	1.29343e-07
2	1	0	0	1	23.9163	0.0972896	0.097192	0.00188836	2	7.04169e-06	1.83533e-07
2	1	0	0	1	24.3763	0.12029	0.120183	0.00164435	2	7.86065e-06	1.97623e-07
2	1	0	0	1	24.8363	0.143291	0.143189	0.00139698	2	8.55929e-06	2.00032e-07
2	1	0	1	1	25.2965	0.166292	0.166211	0.00122841	2	9.16232e-06	2.04176e-07
2	1	0	1	1	25.7565	0.189293	0.189129	0.00111051	2	9.69991e-06	2.10031e-07
2	1	0	1	1	26.2165	0.212294	0.212191	0.00102994	2	1.01925e-05	2.18543e-07
2	1	0	1	1	26.6765	0.235295	0.2351	0.000971825	2	1.06534e-05	2.28477e-07
2	1	0	1	1	27.1365	0.258296	0.258169	0.000927505	2	1.10909e-05	2.39453e-07
2	1	0	1	1	27.5965	0.281297	0.281188	0.000901281	2	1.15123e-05	2.5343e-07
2	0	0	1	1	28.0361	0.296748	0.296634	0.000750913	2	1.18986e-05	2.22746e-07
2	0	0	1	1	28.4961	0.273747	0.27358	0.000647075	2	1.22148e-05	1.77027e-07
2	0	0	1	1	28.9561	0.250746	0.250588	0.000590542	2	1.24975e-05	1.47982e-07
2	0	0	1	1	29.4161	0.227745	0.227552	0.000548628	2	1.27584e-05	1.24842e-07
2	0	0	1	1	29.8761	0.204744	0.204613	0.000513274	2	1.30018e-05	1.05023e-07
2	0	0	1	1	30.3361	0.181743	0.181601	0.000478875	2	1.32289e-05	8.69644e-08
2	0	0	1	1	30.7961	0.158742	0.158624	0.000439746	2	1.34395e-05	6.97543e-08
2	0	0	0	1	31.2563	0.135741	0.135562	0.000388936	2	1.36305e-05	5.2725e-08
2	0	0	0	1	31.7163	0.11274	0.112618	0.000301469	2	1.37913e-05	3.39508e-08
2	0	0	0	1	32.1763	0.0897393	0.0896471	9.34354e-05	2	1.38885e-05	8.37621e-09
2	0	0	0	1	32.6363	0.0667384	0.0666647	-0.00042639	2	1.38265e-05	-2.84252e-08
2	0	0	0	1	33.0963	0.0437374	0.0435773	-0.00125127	2	1.34419e-05	-5.45269e-08
2	0	0	0	1	33.5563	0.0207365	0.0206097	-0.00163438	2	1.27453e-05	-3.3684e-08
[...]
2	1	0	1	0	39.5269	-0.122219	-0.12236	-0.000175507	2	8.88639e-06	2.1475e-08
2	1	0	1	0	39.9869	-0.0992183	-0.0993296	-0.000152307	3	8.8122e-06	1.51286e-08
2	1	0	0	0	40.4471	-0.0762174	-0.0764044	-0.000133838	3	8.74744e-06	1.02258e-08
2	1	0	0	0	40.9071	-0.0532165	-0.0533732	-0.000113542	3	8.69147e-06	6.06011e-09
2	1	0	0	0	41.3671	-0.0302156	-0.0303505	-9.02221e-05	3	8.64551e-06	2.73828e-09
2	1	0	0	0	41.8271	-0.00721462	-0.00734895	-3.38935e-05	3	8.61636e-06	2.49082e-10
2	1	0	0	0	42.2871	0.0157863	0.0157416	0.00012365	3	8.63148e-06	1.94644e-09
2	1	0	0	0	42.7471	0.0387872	0.0387166	0.000566898	3	8.77715e-06	2.19484e-08
2	1	0	0	0	43.2071	0.0617882	0.0616821	0.00132941	3	9.2094e-06	8.20011e-08
2	1	0	0	0	43.6671	0.0847891	0.0846783	0.00183528	3	9.96221e-06	1.55408e-07
2	1	0	0	0	44.1271	0.10779	0.107738	0.00176243	3	1.08072e-05	1.8988e-07
2	1	0	0	0	44.5871	0.130791	0.130734	0.00149676	3	1.15582e-05	1.95677e-07
2	1	0	1	0	45.0473	0.153792	0.153769	0.00128688	3	1.21972e-05	1.97883e-07
2	1	0	1	0	45.5073	0.176793	0.176752	0.00114449	3	1.27552e-05	2.02292e-07
2	1	0	1	0	45.9673	0.199794	0.19967	0.00104305	3	1.32579e-05	2.08266e-07
2	1	0	1	0	46.4273	0.222795	0.222679	0.000974001	3	1.3722e-05	2.1689e-07
2	1	0	1	0	46.8873	0.245796	0.245725	0.000917855	3	1.41575e-05	2.2554e-07
2	1	0	1	0	47.3473	0.268796	0.268683	0.000878206	3	1.45712e-05	2.35959e-07
2	1	0	1	0	47.8073	0.291797	0.291673	0.000855669	3	1.49702e-05	2.49575e-07
2	0	0	1	0	48.2469	0.286247	0.28612	0.000657041	3	1.5301e-05	1.87993e-07
2	0	0	1	0	48.7069	0.263246	0.263081	0.000590621	3	1.55855e-05	1.55381e-07
2	0	0	1	0	49.1669	0.240245	0.240096	0.000544885	3	1.58454e-05	1.30825e-07
2	0	0	1	0	49.6269	0.217244	0.21714	0.000508339	3	1.60868e-05	1.10381e-07
2	0	0	1	0	50.0869	0.194244	0.194113	0.000473551	3	1.6312e-05	9.19224e-08
2	0	0	1	0	50.5469	0.171243	0.171074	0.000437017	3	1.65212e-05	7.47623e-08
2	0	0	1	0	51.0069	0.148242	0.148014	0.000398884	3	1.67131e-05	5.90406e-08
2	0	0	0	0	51.4671	0.125241	0.125081	0.000335543	3	1.68826e-05	4.19699e-08
2	0	0	0	0	51.9271	0.10224	0.102088	0.000211565	3	1.70121e-05	2.15982e-08
2	0	0	0	0	52.3871	0.0792389	0.0791137	-0.00010122	3	1.70477e-05	-8.00787e-09
2	0	0	0	0	52.8471	0.0562379	0.0561546	-0.000782421	3	1.68581e-05	-4.39366e-08
2	0	0	0	0	53.3071	0.033237	0.0330842	-0.00151965	3	1.63118e-05	-5.02763e-08
2	0	0	0	0	53.7671	0.0102361	0.0101261	-0.00157165	3	1.55719e-05	-1.59148e-08
2	0	0	0	0	54.2271	-0.0127648	-0.0128563	-0.0012394	3	1.49235e-05	1.59341e-08
2	0	0	0	0	54.6871	-0.0357658	-0.0358992	-0.000976914	3	1.44175e-05	3.50704e-08
2	0	0	0	0	55.1471	-0.0587667	-0.0589155	-0.000813902	3	1.40076e-05	4.79515e-08
2	0	0	0	0	55.6071	-0.0817677	-0.0818768	-0.000705242	3	1.36589e-05	5.7743e-08
2	0	0	1	0	56.0673	-0.104769	-0.104902	-0.000630815	3	1.33518e-05	6.61736e-08
2	0	0	1	0	56.5273	-0.12777	-0.127898	-0.000572807	3	1.30748e-05	7.32608e-08
2	0	0	1	0	56.9873	-0.15077	-0.150842	-0.000530249	3	1.28205e-05	7.99839e-08
2	0	0	1	0	57.4473	-0.173771	-0.173894	-0.000495758	3	1.25843e-05	8.62092e-08
2	0	0	1	0	57.9073	-0.196772	-0.196907	-0.000468867	3	1.23616e-05	9.2323e-08
2	1	0	1	1	58.3577	-0.180722	-0.180832	-0.00027831	3	1.22129e-05	5.03273e-08
2	1	0	1	1	58.8177	-0.157721	-0.157818	-0.000236674	3	1.20969e-05	3.73514e-08
2	1	0	1	1	59.2777	-0.13472	-0.134859	-0.000200903	3	1.19979e-05	2.70935e-08
2	1	0	1	1	59.7377	-0.111719	-0.11179	-0.00017633	3	1.19121e-05	1.9712e-08
2	1	0	0	1	60.1979	-0.0887179	-0.0888301	-0.000156637	3	1.1837e-05	1.39141e-08
2	1	0	0	1	60.6579	-0.065717	-0.0658657	-0.000135687	3	1.1771e-05	8.93715e-09
2	1	0	0	1	60.7086	-0.0631419	-0.0632377	-0.000135313	3	1.17643e-05	8.55687e-09

File: C003C-0ppb-B_C01.mpt
EC-Lab ASCII FILE
Nb header lines : 59

Cyclic Voltammetry

Run on channel : 1 (SN 22398)
User :
CE vs. WE compliance from -10 V to 10 V
Electrode connection : standard
Ewe ctrl range : min = -1.00 V, max = 1.00 V
Safety Limits :
	Ewe min = -2.00 V
	Ewe max = 2.00 V
	|I| = 50.000 mA
	for t > 10 ms
Acquisition started on : 11/21/2018 11:22:19
Technique started on : 11/21/2018 11:22:19
Saved on :
	File : C003C-0ppb-B_C01.mpr
	Directory : \\ECCOMPUTER\Users\Lab User\Google Drive\Electrochemical Data\EC-Lab\Data\FREDsense\Tim\2018.11.21 - EC comparison to High Throughput\
	Host : 172.16.1.30
Device : SP-50 (SN 0301030103010301)
Address : USB
EC-Lab for windows v11.02 (software)
Internet server v11.02 (firmware)
Command interpretor v11.02 (firmware)
Electrode material : Au/Pd
Initial state :
Electrolyte : NaCl (0.2M)
Comments : Fe(CN)63-/Fe(CN)64- 5.10-3 M
Reference electrode : SCE Saturated Calomel Electrode (0.241 V)
Electrode surface area : 0.001 cm²
Characteristic mass : 0.001 g
Equivalent Weight : 0.000 g/eq.
Density : 0.000 g/cm3
Cycle Definition : Charge/Discharge alternance
Ei (V)              -0.100
vs.                 Ref
dE/dt               50.000
dE/dt unit          mV/s
E1 (V)              0.300
vs.                 Ref
Step percent        50
N                   10
E range min (V)     -1.000
E range max (V)     1.000
I Range             Auto
I Range min         Unset
I Range max         Unset
I Range init        Unset
Bandwidth           5
E2 (V)              -0.200
vs.                 Ref
nc cycles           2
Reverse Scan        1
Ef (V)              0.000
vs.                 Eoc

mode	ox/red	error	control changes	counter inc.	time/s	control/V	Ewe/V	<I>/mA	cycle number	(Q-Qo)/C	P/W
2	1	0	1	0	0.000000000000000E+000	-0.0984851	-0.0985642	-6.60595e-05	1	0.0000000E+000	6.5111e-09
2	1	0	1	0	0.4865	-0.0741592	-0.0743192	4.28458e-05	1	1.59771e-08	-3.18426e-09
2	1	0	1	0	0.9465	-0.0511582	-0.0512891	5.29831e-05	1	3.95408e-08	-2.71745e-09
2	1	0	1	0	1.4065	-0.0281573	-0.0282727	6.79463e-05	1	6.84609e-08	-1.92102e-09
2	1	0	1	0	1.8665	-0.00515635	-0.00529554	0.000111735	1	1.0924e-07	-5.91699e-10
2	1	0	1	0	2.3265	0.0178446	0.0177569	0.000276453	1	1.92077e-07	4.90894e-09
2	1	0	1	0	2.7865	0.0408455	0.0407541	0.000766142	1	4.16564e-07	3.12235e-08
2	1	0	1	0	3.2465	0.0638464	0.0637143	0.00158465	1	9.56142e-07	1.00965e-07
2	1	0	1	0	3.7065	0.0868473	0.0867338	0.00205741	1	1.82085e-06	1.78447e-07
2	1	0	1	0	4.1665	0.109848	0.109719	0.00197188	1	2.76261e-06	2.16353e-07
2	1	0	1	0	4.6265	0.132849	0.132719	0.00173079	1	3.61553e-06	2.29709e-07
2	1	0	0	0	5.0867	0.15585	0.155711	0.0015248	1	4.36354e-06	2.37428e-07
2	1	0	0	0	5.5467	0.178851	0.178679	0.00137438	1	5.03054e-06	2.45573e-07
2	1	0	0	0	6.0067	0.201852	0.201664	0.00127101	1	5.63875e-06	2.56318e-07
2	1	0	0	0	6.4667	0.224853	0.224697	0.0011931	1	6.20539e-06	2.68087e-07
2	1	0	0	0	6.9267	0.247854	0.247681	0.00113547	1	6.74148e-06	2.81234e-07
2	1	0	0	0	7.3867	0.270855	0.270767	0.00109514	1	7.25474e-06	2.96529e-07
2	1	0	0	0	7.8467	0.293856	0.293674	0.00106384	1	7.75291e-06	3.12422e-07
2	0	0	1	0	8.2953	0.283705	0.283488	0.000837379	1	8.17285e-06	2.37387e-07
2	0	0	1	0	8.7553	0.260704	0.260525	0.000756424	1	8.53674e-06	1.97068e-07
2	0	0	1	0	9.2153	0.237703	0.237563	0.000697294	1	8.86953e-06	1.65651e-07
2	0	0	1	0	9.6753	0.214702	0.214516	0.000653295	1	9.17902e-06	1.40142e-07
2	0	0	1	0	10.1353	0.191702	0.191514	0.000610021	1	9.4683e-06	1.16828e-07
2	0	0	1	0	10.5953	0.168701	0.168519	0.000563313	1	9.73744e-06	9.4929e-08
2	0	0	0	0	11.0555	0.1457	0.145481	0.000511289	1	9.98406e-06	7.43826e-08
2	0	0	0	0	11.5155	0.122699	0.122541	0.000430172	1	1.02011e-05	5.27136e-08
2	0	0	0	0	11.9755	0.0996979	0.0995253	0.000274841	1	1.03674e-05	2.73536e-08
2	0	0	0	0	12.4355	0.0766969	0.0765874	-9.17059e-05	1	1.04209e-05	-7.02352e-09
2	0	0	0	0	12.8955	0.053696	0.0535795	-0.000831872	1	1.02206e-05	-4.45713e-08
2	0	0	0	0	13.3555	0.0306951	0.0305049	-0.00151865	1	9.65806e-06	-4.63261e-08
2	0	0	0	0	13.8155	0.00769417	0.00747048	-0.0015006	1	8.93799e-06	-1.12102e-08
2	0	0	0	0	14.2755	-0.0153068	-0.0154759	-0.00117867	1	8.32029e-06	1.8241e-08
2	0	0	0	0	14.7355	-0.0383077	-0.0384499	-0.000923581	1	7.84004e-06	3.55116e-08
2	0	0	0	0	15.1955	-0.0613086	-0.0614546	-0.000757312	1	7.45519e-06	4.65403e-08
2	0	0	0	0	15.6555	-0.0843096	-0.0844582	-0.00064716	1	7.13246e-06	5.4658e-08
2	0	0	1	0	16.1157	-0.107311	-0.107516	-0.000572399	1	6.85195e-06	6.1542e-08
2	0	0	1	0	16.5757	-0.130311	-0.130483	-0.000516607	1	6.60183e-06	6.74082e-08
2	0	0	1	0	17.0357	-0.153312	-0.153415	-0.000471576	1	6.37451e-06	7.2347e-08
2	0	0	1	0	17.4957	-0.176313	-0.176457	-0.000440237	1	6.16469e-06	7.76829e-08
2	0	0	1	0	17.9557	-0.199314	-0.199426	-0.000413647	1	5.96792e-06	8.24919e-08
2	1	0	0	1	18.4051	-0.178213	-0.178306	-0.000242169	1	5.84378e-06	4.31802e-08
2	1	0	0	1	18.8651	-0.155212	-0.155329	-0.000203959	1	5.74303e-06	3.16806e-08
2	1	0	0	1	19.3251	-0.132212	-0.132339	-0.000172538	1	5.6582e-06	2.28335e-08
2	1	0	0	1	19.7851	-0.109211	-0.109349	-0.000149243	1	5.58574e-06	1.63195e-08
2	1	0	1	1	20.2453	-0.0862097	-0.0863262	-0.00012732	2	5.52338e-06	1.0991e-08
2	1	0	1	1	20.7053	-0.0632087	-0.0633628	-0.000108863	2	5.46999e-06	6.89786e-09
2	1	0	1	1	21.1653	-0.0402078	-0.0402722	-9.04394e-05	2	5.42561e-06	3.6422e-09
2	1	0	1	1	21.6253	-0.0172068	-0.0173449	-5.04641e-05	2	5.39424e-06	8.75296e-10
2	1	0	1	1	22.0853	0.00579409	0.0056513	4.75638e-05	2	5.39084e-06	2.68798e-10
2	1	0	1	1	22.5453	0.028795	0.0286327	0.000340549	2	5.47004e-06	9.75082e-09
2	1	0	1	1	23.0053	0.0517959	0.0516808	0.000992527	2	5.76411e-06	5.12946e-08
2	1	0	1	1	23.4653	0.0747969	0.0746972	0.00170508	2	6.39732e-06	1.27365e-07
2	1	0	1	1	23.9253	0.0977978	0.0976563	0.00190874	2	7.25295e-06	1.864e-07
2	1	0	1	1	24.3853	0.120799	0.120628	0.00172557	2	8.09637e-06	2.08152e-07
2	1	0	1	1	24.8453	0.1438	0.143648	0.0014936	2	8.83648e-06	2.14552e-07
2	1	0	0	1	25.3055	0.166801	0.166664	0.00131473	2	9.48191e-06	2.19118e-07
2	1	0	0	1	25.7655	0.189801	0.189669	0.00118409	2	1.00569e-05	2.24586e-07
2	1	0	0	1	26.2255	0.212802	0.212697	0.00109363	2	1.05815e-05	2.32612e-07
2	1	0	0	1	26.6855	0.235803	0.235638	0.00102585	2	1.10698e-05	2.41729e-07
2	1	0	0	1	27.1455	0.258804	0.258679	0.0009741	2	1.15308e-05	2.51979e-07
2	1	0	0	1	27.6055	0.281805	0.281672	0.000941198	2	1.19721e-05	2.65109e-07
2	0	0	0	1	28.0551	0.295706	0.295539	0.000794993	2	1.23819e-05	2.34952e-07
2	0	0	0	1	28.5151	0.272705	0.272509	0.000695488	2	1.27206e-05	1.89527e-07
2	0	0	0	1	28.9751	0.249704	0.249472	0.000641382	2	1.30268e-05	1.60007e-07
2	0	0	0	1	29.4351	0.226703	0.226493	0.000598293	2	1.33107e-05	1.35509e-07
2	0	0	0	1	29.8951	0.203702	0.203503	0.000557605	2	1.3576e-05	1.13475e-07
2	0	0	0	1	30.3551	0.180701	0.180511	0.000519967	2	1.38234e-05	9.386e-08
2	0	0	0	1	30.8151	0.1577	0.157518	0.000474239	2	1.40517e-05	7.47013e-08
2	0	0	1	1	31.2753	0.134699	0.134531	0.000418046	2	1.42573e-05	5.624e-08
2	0	0	1	1	31.7353	0.111698	0.111487	0.000319677	2	1.44284e-05	3.56397e-08
2	0	0	1	1	32.1953	0.0886974	0.0884862	9.89112e-05	2	1.45314e-05	8.75228e-09
2	0	0	1	1	32.6553	0.0656965	0.0655292	-0.000410643	2	1.44735e-05	-2.69091e-08
2	0	0	1	1	33.1153	0.0426956	0.042533	-0.00122276	2	1.40986e-05	-5.20077e-08
2	0	0	1	1	33.5753	0.0196946	0.019523	-0.00163044	2	1.34116e-05	-3.18311e-08
[...]
2	1	0	1	0	39.5449	-0.121211	-0.121333	-0.000196462	2	9.43273e-06	2.38372e-08
2	1	0	0	0	40.0051	-0.0982101	-0.0983279	-0.000169874	3	9.35032e-06	1.67034e-08
2	1	0	0	0	40.4651	-0.0752092	-0.0753687	-0.000150889	3	9.27797e-06	1.13723e-08
2	1	0	0	0	40.9251	-0.0522083	-0.0523704	-0.000126023	3	9.21499e-06	6.5999e-09
2	1	0	0	0	41.3851	-0.0292073	-0.0293477	-0.000100764	3	9.16301e-06	2.95719e-09
2	1	0	0	0	41.8451	-0.0062064	-0.00640549	-4.1542e-05	3	9.12973e-06	2.66097e-10
2	1	0	0	0	42.3051	0.0167945	0.0166904	0.000129302	3	9.14413e-06	2.1581e-09
2	1	0	0	0	42.7651	0.0397955	0.0397152	0.000570588	3	9.29217e-06	2.2661e-08
2	1	0	0	0	43.2251	0.0627964	0.0627008	0.00130731	3	9.7209e-06	8.19697e-08
2	1	0	0	0	43.6851	0.0857973	0.0856843	0.00181948	3	1.04622e-05	1.55901e-07
2	1	0	0	0	44.1451	0.108798	0.108713	0.00180827	3	1.13139e-05	1.96583e-07
2	1	0	0	0	44.6051	0.131799	0.13167	0.00158442	3	1.20972e-05	2.08622e-07
2	1	0	1	0	45.0653	0.1548	0.154692	0.00137647	3	1.27777e-05	2.12929e-07
2	1	0	1	0	45.5253	0.177801	0.17764	0.00122297	3	1.33751e-05	2.17247e-07
2	1	0	1	0	45.9853	0.200802	0.200641	0.00111228	3	1.39122e-05	2.23169e-07
2	1	0	1	0	46.4453	0.223803	0.223667	0.0010299	3	1.4406e-05	2.30354e-07
2	1	0	1	0	46.9053	0.246804	0.246673	0.00097058	3	1.48672e-05	2.39416e-07
2	1	0	1	0	47.3653	0.269805	0.269696	0.000922585	3	1.53032e-05	2.48818e-07
2	1	0	1	0	47.8253	0.292806	0.292596	0.000893867	3	1.57216e-05	2.61542e-07
2	0	0	1	0	48.2749	0.284705	0.284479	0.000707488	3	1.60768e-05	2.01265e-07
2	0	0	1	0	48.7349	0.261704	0.261558	0.000641818	3	1.6385e-05	1.67873e-07
2	0	0	1	0	49.1949	0.238703	0.238513	0.000596524	3	1.66685e-05	1.42279e-07
2	0	0	1	0	49.6549	0.215703	0.2155	0.000556989	3	1.69327e-05	1.20031e-07
2	0	0	1	0	50.1149	0.192702	0.192561	0.00051825	3	1.71792e-05	9.97946e-08
2	0	0	1	0	50.5749	0.169701	0.169565	0.000478552	3	1.74078e-05	8.11455e-08
2	0	0	0	0	51.0351	0.1467	0.146524	0.00043043	3	1.76163e-05	6.30683e-08
2	0	0	0	0	51.4951	0.123699	0.123492	0.000359659	3	1.77984e-05	4.44149e-08
2	0	0	0	0	51.9551	0.100698	0.100532	0.00022311	3	1.79354e-05	2.24298e-08
2	0	0	0	0	52.4151	0.077697	0.0775182	-0.000102716	3	1.7973e-05	-7.96235e-09
2	0	0	0	0	52.8751	0.0546961	0.0545835	-0.000776105	3	1.77839e-05	-4.23625e-08
2	0	0	0	0	53.3351	0.0316951	0.0315141	-0.00150479	3	1.72441e-05	-4.74221e-08
2	0	0	0	0	53.7951	0.00869421	0.0085041	-0.00158399	3	1.65062e-05	-1.34704e-08
2	0	0	0	0	54.2551	-0.0143067	-0.014472	-0.00128064	3	1.58432e-05	1.85334e-08
2	0	0	0	0	54.7151	-0.0373077	-0.0374618	-0.00101551	3	1.53182e-05	3.80428e-08
2	0	0	0	0	55.1751	-0.0603086	-0.0605397	-0.000841477	3	1.48932e-05	5.09428e-08
2	0	0	0	0	55.6351	-0.0833095	-0.0834935	-0.000725989	3	1.45338e-05	6.06154e-08
2	0	0	1	0	56.0953	-0.10631	-0.106465	-0.00064309	3	1.42191e-05	6.84668e-08
2	0	0	1	0	56.5553	-0.129311	-0.129517	-0.000582225	3	1.39367e-05	7.54079e-08
2	0	0	1	0	57.0153	-0.152312	-0.152463	-0.000535191	3	1.36791e-05	8.1597e-08
2	0	0	1	0	57.4753	-0.175313	-0.175413	-0.000497225	3	1.34413e-05	8.72195e-08
2	0	0	1	0	57.9353	-0.198314	-0.198425	-0.000468764	3	1.32184e-05	9.30145e-08
2	1	0	0	1	58.3847	-0.179213	-0.179314	-0.000294234	3	1.30681e-05	5.27602e-08
2	1	0	0	1	58.8447	-0.156213	-0.156322	-0.000251243	3	1.2944e-05	3.92748e-08
2	1	0	0	1	59.3047	-0.133212	-0.133306	-0.000220888	3	1.28369e-05	2.94456e-08
2	1	0	0	1	59.7647	-0.110211	-0.110331	-0.000194305	3	1.27434e-05	2.14378e-08
2	1	0	1	1	60.2249	-0.0872097	-0.0873725	-0.000170844	3	1.2661e-05	1.49271e-08
2	1	0	1	1	60.6849	-0.0642088	-0.0643668	-0.000152115	3	1.25883e-05	9.79114e-09
2	1	0	0	1	60.7554	-0.0606836	-0.0608196	-0.00016129	3	1.2578e-05	9.80956e-09