Folder: automated_analyisis/AutoAnalysis Examples/EC (part 12)

File: C003B-20ppb-A_C01.mpt
EC-Lab ASCII FILE
Nb header lines : 59

Cyclic Voltammetry

Run on channel : 1 (SN 22398)
User :
CE vs. WE compliance from -10 V to 10 V
Electrode connection : standard
Ewe ctrl range : min = -1.00 V, max = 1.00 V
Safety Limits :
	Ewe min = -2.00 V
	Ewe max = 2.00 V
	|I| = 50.000 mA
	for t > 10 ms
Acquisition started on : 11/21/2018 10:22:24
Technique started on : 11/21/2018 10:22:24
Saved on :
	File : C003B-20ppb-A_C01.mpr
	Directory : \\ECCOMPUTER\Users\Lab User\Google Drive\Electrochemical Data\EC-Lab\Data\FREDsense\Tim\2018.11.21 - EC comparison to High Throughput\
	Host : 172.16.1.30
Device : SP-50 (SN 0301030103010301)
Address : USB
EC-Lab for windows v11.02 (software)
Internet server v11.02 (firmware)
Command interpretor v11.02 (firmware)
Electrode material : Au/Pd
Initial state :
Electrolyte : NaCl (0.2M)
Comments : Fe(CN)63-/Fe(CN)64- 5.10-3 M
Reference electrode : SCE Saturated Calomel Electrode (0.241 V)
Electrode surface area : 0.001 cm²
Characteristic mass : 0.001 g
Equivalent Weight : 0.000 g/eq.
Density : 0.000 g/cm3
Cycle Definition : Charge/Discharge alternance
Ei (V)              -0.100
vs.                 Ref
dE/dt               50.000
dE/dt unit          mV/s
E1 (V)              0.300
vs.                 Ref
Step percent        50
N                   10
E range min (V)     -1.000
E range max (V)     1.000
I Range             Auto
I Range min         Unset
I Range max         Unset
I Range init        Unset
Bandwidth           5
E2 (V)              -0.200
vs.                 Ref
nc cycles           2
Reverse Scan        1
Ef (V)              0.000
vs.                 Eoc

mode	ox/red	error	control changes	counter inc.	time/s	control/V	Ewe/V	<I>/mA	cycle number	(Q-Qo)/C	P/W
2	1	0	1	0	0.000000000000000E+000	-0.0985063	-0.0987139	-0.000109299	1	0.0000000E+000	1.07893e-08
2	1	0	1	0	0.4865	-0.0741804	-0.074294	5.18844e-05	1	1.94426e-08	-3.8547e-09
2	1	0	1	0	0.9465	-0.0511796	-0.0512702	6.17109e-05	1	4.71485e-08	-3.16393e-09
2	1	0	1	0	1.4065	-0.0281788	-0.028239	7.57431e-05	1	8.03055e-08	-2.13891e-09
2	1	0	1	0	1.8665	-0.00517794	-0.00526501	0.000112574	1	1.2359e-07	-5.92704e-10
2	1	0	1	0	2.3265	0.0178229	0.0177641	0.000235107	1	1.99505e-07	4.17646e-09
2	1	0	1	0	2.7865	0.0408237	0.0407932	0.00061726	1	3.84369e-07	2.518e-08
2	1	0	1	0	3.2465	0.0638245	0.0638	0.00124767	1	8.13175e-07	7.96015e-08
2	1	0	1	0	3.7065	0.0868254	0.0867305	0.00156815	1	1.48362e-06	1.36007e-07
2	1	0	1	0	4.1665	0.109826	0.10975	0.00145528	1	2.1894e-06	1.59717e-07
2	1	0	1	0	4.6265	0.132827	0.13278	0.00125226	1	2.8119e-06	1.66276e-07
2	1	0	1	0	5.0865	0.155828	0.155715	0.00110527	1	3.35342e-06	1.72107e-07
2	1	0	0	0	5.5467	0.178829	0.178756	0.0010067	1	3.83934e-06	1.79953e-07
2	1	0	0	0	6.0067	0.201829	0.20169	0.00094687	1	4.28863e-06	1.90974e-07
2	1	0	0	0	6.4667	0.22483	0.224707	0.000900148	1	4.71303e-06	2.02269e-07
2	1	0	0	0	6.9267	0.247831	0.247671	0.00086888	1	5.12087e-06	2.15196e-07
2	1	0	0	0	7.3867	0.270832	0.270757	0.000853344	1	5.51839e-06	2.31049e-07
2	1	0	0	0	7.8467	0.293833	0.293788	0.000846514	1	5.91036e-06	2.48695e-07
2	0	0	1	0	8.2961	0.283732	0.283566	0.00060902	1	6.23025e-06	1.72697e-07
2	0	0	1	0	8.7561	0.260732	0.260599	0.000526978	1	6.48871e-06	1.3733e-07
2	0	0	1	0	9.2161	0.237731	0.23758	0.000478902	1	6.71859e-06	1.13777e-07
2	0	0	1	0	9.6761	0.21473	0.214585	0.000440825	1	6.92912e-06	9.45943e-08
2	0	0	1	0	10.1361	0.191729	0.191596	0.000410277	1	7.12396e-06	7.86074e-08
2	0	0	0	0	10.5963	0.168728	0.168588	0.000379097	1	7.3043e-06	6.39112e-08
2	0	0	0	0	11.0563	0.145727	0.145551	0.000341672	1	7.46884e-06	4.97309e-08
2	0	0	0	0	11.5163	0.122727	0.12253	0.000285969	1	7.61291e-06	3.50397e-08
2	0	0	0	0	11.9763	0.0997258	0.0995505	0.000170464	1	7.72048e-06	1.69698e-08
2	0	0	0	0	12.4363	0.076725	0.0766158	-0.000108706	1	7.74316e-06	-8.32858e-09
2	0	0	0	0	12.8963	0.0537242	0.0535761	-0.000674018	1	7.5709e-06	-3.61113e-08
2	0	0	0	0	13.3563	0.0307233	0.0306234	-0.00116808	1	7.12819e-06	-3.57705e-08
2	0	0	0	0	13.8163	0.00772253	0.00758264	-0.00110644	1	6.58627e-06	-8.3897e-09
2	0	0	0	0	14.2763	-0.0152783	-0.0153775	-0.000858442	1	6.13398e-06	1.32007e-08
2	0	0	0	0	14.7363	-0.0382791	-0.0384384	-0.000677287	1	5.78309e-06	2.60339e-08
2	0	0	0	0	15.1963	-0.06128	-0.0613445	-0.000564261	1	5.49796e-06	3.46143e-08
2	0	0	0	0	15.6563	-0.0842808	-0.0844606	-0.000494677	1	5.25452e-06	4.17807e-08
2	0	0	1	0	16.1165	-0.107282	-0.107447	-0.000440753	1	5.03919e-06	4.73577e-08
2	0	0	1	0	16.5765	-0.130282	-0.130415	-0.000404215	1	4.84408e-06	5.27156e-08
2	0	0	1	0	17.0365	-0.153283	-0.153353	-0.000376454	1	4.66389e-06	5.77303e-08
2	0	0	1	0	17.4965	-0.176284	-0.176398	-0.000356662	1	4.49467e-06	6.29143e-08
2	0	0	1	0	17.9565	-0.199285	-0.199376	-0.000344698	1	4.33305e-06	6.87245e-08
2	1	0	1	1	18.3969	-0.178684	-0.178778	-0.000157801	1	4.24868e-06	2.82113e-08
2	1	0	1	1	18.8569	-0.155683	-0.15578	-0.000125561	1	4.18539e-06	1.95599e-08
2	1	0	1	1	19.3169	-0.132683	-0.13272	-9.92272e-05	1	4.13569e-06	1.31694e-08
2	1	0	1	1	19.7769	-0.109682	-0.109742	-8.00795e-05	1	4.09605e-06	8.78812e-09
2	1	0	0	1	20.2271	-0.0871809	-0.08729	-6.44539e-05	2	4.06507e-06	5.62619e-09
2	1	0	0	1	20.6871	-0.0641801	-0.0642843	-4.96851e-05	2	4.04024e-06	3.19397e-09
2	1	0	0	1	21.1471	-0.0411792	-0.0412987	-3.43616e-05	2	4.02217e-06	1.41909e-09
2	1	0	0	1	21.6071	-0.0181784	-0.0182908	-1.06743e-05	2	4.01294e-06	1.9524e-10
2	1	0	0	1	22.0671	0.00482242	0.00469062	6.07835e-05	2	4.02312e-06	2.85112e-10
2	1	0	0	1	22.5271	0.0278232	0.027778	0.000269446	2	4.09181e-06	7.48468e-09
2	1	0	0	1	22.9871	0.0508241	0.0507392	0.000761462	2	4.31934e-06	3.8636e-08
2	1	0	0	1	23.4471	0.0738249	0.0737227	0.00130786	2	4.80562e-06	9.64191e-08
2	1	0	0	1	23.9071	0.0968257	0.0967062	0.00142949	2	5.45537e-06	1.3824e-07
2	1	0	0	1	24.3671	0.119827	0.119744	0.00125855	2	6.07928e-06	1.50703e-07
2	1	0	0	1	24.8271	0.142827	0.142751	0.00107375	2	6.61537e-06	1.53278e-07
2	1	0	0	1	25.2871	0.165828	0.16572	0.000946061	2	7.07953e-06	1.56781e-07
2	1	0	1	1	25.7473	0.188829	0.188763	0.00085955	2	7.49453e-06	1.62251e-07
2	1	0	1	1	26.2073	0.21183	0.211747	0.000797017	2	7.87584e-06	1.68766e-07
2	1	0	1	1	26.6673	0.234831	0.234738	0.000757623	2	8.2343e-06	1.77843e-07
2	1	0	1	1	27.1273	0.257832	0.257747	0.00072949	2	8.57732e-06	1.88023e-07
2	1	0	1	1	27.5873	0.280832	0.280755	0.000720354	2	8.91133e-06	2.02243e-07
2	0	0	0	1	28.0367	0.296733	0.2966	0.000583121	2	9.22701e-06	1.72954e-07
2	0	0	0	1	28.4967	0.273732	0.273647	0.000484441	2	9.46742e-06	1.32566e-07
2	0	0	0	1	28.9567	0.250731	0.250625	0.000433848	2	9.67715e-06	1.08733e-07
2	0	0	0	1	29.4167	0.22773	0.227602	0.000400802	2	9.86824e-06	9.12234e-08
2	0	0	0	1	29.8767	0.20473	0.204614	0.000371335	2	1.00449e-05	7.59805e-08
2	0	0	0	1	30.3367	0.181729	0.181598	0.000345186	2	1.02087e-05	6.2685e-08
2	0	0	1	1	30.7969	0.158728	0.158606	0.000315157	2	1.03596e-05	4.99857e-08
2	0	0	1	1	31.2569	0.135727	0.135631	0.000274199	2	1.04949e-05	3.71899e-08
2	0	0	1	1	31.7169	0.112726	0.112611	0.000207908	2	1.0607e-05	2.34128e-08
2	0	0	1	1	32.1769	0.0897255	0.089578	4.91182e-05	2	1.06707e-05	4.39991e-09
2	0	0	1	1	32.6369	0.0667246	0.0665722	-0.000335002	2	1.06155e-05	-2.23018e-08
2	0	0	1	1	33.0969	0.0437238	0.0436354	-0.000945914	2	1.03217e-05	-4.12753e-08
2	0	0	1	1	33.5569	0.020723	0.0206137	-0.00123425	2	9.79663e-06	-2.54424e-08
[...]
2	1	0	0	0	39.5175	-0.122682	-0.122768	-0.000111984	2	6.81132e-06	1.37481e-08
2	1	0	1	0	39.972	-0.0999563	-0.100088	-0.000101674	3	6.76517e-06	1.01763e-08
2	1	0	1	0	40.4277	-0.0771806	-0.0772782	-7.9924e-05	3	6.7266e-06	6.17639e-09
2	1	0	1	0	40.8877	-0.0541797	-0.0542831	-6.46624e-05	3	6.69473e-06	3.51007e-09
2	1	0	1	0	41.3477	-0.0311789	-0.0312837	-4.40309e-05	3	6.67057e-06	1.37745e-09
2	1	0	1	0	41.8077	-0.00817805	-0.0082429	-7.05844e-06	3	6.65868e-06	5.8182e-11
2	1	0	1	0	42.2677	0.0148228	0.014765	0.000107114	3	6.6784e-06	1.58154e-09
2	1	0	1	0	42.7277	0.0378236	0.0377347	0.000422732	3	6.79086e-06	1.59517e-08
2	1	0	1	0	43.1877	0.0608244	0.0607606	0.000984165	3	7.11098e-06	5.97985e-08
2	1	0	1	0	43.6477	0.0838253	0.0837102	0.00138423	3	7.67322e-06	1.15874e-07
2	1	0	1	0	44.1077	0.106826	0.106771	0.0013442	3	8.31476e-06	1.43522e-07
2	1	0	1	0	44.5677	0.129827	0.129696	0.00115342	3	8.89122e-06	1.49594e-07
2	1	0	1	0	45.0277	0.152828	0.152765	0.000995057	3	9.3837e-06	1.52009e-07
2	1	0	1	0	45.4877	0.175829	0.175738	0.000882156	3	9.81434e-06	1.55029e-07
2	1	0	0	0	45.9479	0.198829	0.198695	0.000805309	3	1.02027e-05	1.60011e-07
2	1	0	0	0	46.4079	0.22183	0.221708	0.000752222	3	1.05617e-05	1.66773e-07
2	1	0	0	0	46.8679	0.244831	0.244711	0.000716256	3	1.09e-05	1.75276e-07
2	1	0	0	0	47.3279	0.267832	0.267757	0.000690687	3	1.1224e-05	1.84937e-07
2	1	0	0	0	47.7879	0.290833	0.290743	0.00067851	3	1.15398e-05	1.97272e-07
2	0	0	1	0	48.2373	0.286732	0.286605	0.000497302	3	1.18056e-05	1.42529e-07
2	0	0	1	0	48.6973	0.263732	0.263619	0.000436512	3	1.20184e-05	1.15073e-07
2	0	0	1	0	49.1573	0.240731	0.240558	0.000398594	3	1.22096e-05	9.5885e-08
2	0	0	1	0	49.6173	0.21773	0.217585	0.000369769	3	1.23855e-05	8.0456e-08
2	0	0	1	0	50.0773	0.194729	0.194551	0.000341527	3	1.25485e-05	6.64447e-08
2	0	0	0	0	50.5375	0.171728	0.171589	0.000315157	3	1.26993e-05	5.40775e-08
2	0	0	0	0	50.9975	0.148728	0.148541	0.000282862	3	1.28365e-05	4.20166e-08
2	0	0	0	0	51.4575	0.125727	0.125541	0.000237229	3	1.29566e-05	2.97818e-08
2	0	0	0	0	51.9175	0.102726	0.102571	0.000145608	3	1.30464e-05	1.49351e-08
2	0	0	0	0	52.3775	0.0797251	0.0796202	-8.82809e-05	3	1.30667e-05	-7.02894e-09
2	0	0	0	0	52.8375	0.0567243	0.0565932	-0.000584923	3	1.29222e-05	-3.31027e-08
2	0	0	0	0	53.2975	0.0337235	0.0335737	-0.00113836	3	1.25143e-05	-3.82188e-08
2	0	0	0	0	53.7575	0.0107226	0.0106241	-0.00119183	3	1.19558e-05	-1.26621e-08
2	0	0	0	0	54.2175	-0.0122782	-0.0123731	-0.000955207	3	1.14588e-05	1.18189e-08
2	0	0	0	0	54.6775	-0.035279	-0.0354245	-0.000760529	3	1.10667e-05	2.69414e-08
2	0	0	0	0	55.1375	-0.0582799	-0.0584218	-0.000635722	3	1.07468e-05	3.714e-08
2	0	0	0	0	55.5975	-0.0812807	-0.081383	-0.000556257	3	1.04727e-05	4.52699e-08
2	0	0	1	0	56.0577	-0.104282	-0.104392	-0.00050074	3	1.02298e-05	5.22732e-08
2	0	0	1	0	56.5177	-0.127282	-0.127381	-0.000458295	3	1.00093e-05	5.8378e-08
2	0	0	1	0	56.9777	-0.150283	-0.150413	-0.00042651	3	9.80567e-06	6.41527e-08
2	0	0	1	0	57.4377	-0.173284	-0.173382	-0.000400105	3	9.61504e-06	6.93708e-08
2	0	0	1	0	57.8977	-0.196285	-0.196376	-0.000384286	3	9.43363e-06	7.54646e-08
2	1	0	1	1	58.3381	-0.181684	-0.18179	-0.000200175	3	9.32234e-06	3.63897e-08
2	1	0	1	1	58.7981	-0.158684	-0.158791	-0.000162515	3	9.24096e-06	2.5806e-08
2	1	0	1	1	59.2581	-0.135683	-0.135735	-0.000137263	3	9.17429e-06	1.86313e-08
2	1	0	1	1	59.7181	-0.112682	-0.112799	-0.000112011	3	9.11868e-06	1.26347e-08
2	1	0	0	1	60.1783	-0.089681	-0.0897273	-9.57351e-05	3	9.07199e-06	8.59005e-09
2	1	0	0	1	60.6383	-0.0666802	-0.0668063	-7.95584e-05	3	9.03281e-06	5.315e-09
2	1	0	1	1	60.6964	-0.063755	-0.0640797	-7.31217e-05	3	9.02837e-06	4.68561e-09

File: C003B-20ppb-B_C01.mpt
EC-Lab ASCII FILE
Nb header lines : 59

Cyclic Voltammetry

Run on channel : 1 (SN 22398)
User :
CE vs. WE compliance from -10 V to 10 V
Electrode connection : standard
Ewe ctrl range : min = -1.00 V, max = 1.00 V
Safety Limits :
	Ewe min = -2.00 V
	Ewe max = 2.00 V
	|I| = 50.000 mA
	for t > 10 ms
Acquisition started on : 11/21/2018 11:19:02
Technique started on : 11/21/2018 11:19:02
Saved on :
	File : C003B-20ppb-B_C01.mpr
	Directory : \\ECCOMPUTER\Users\Lab User\Google Drive\Electrochemical Data\EC-Lab\Data\FREDsense\Tim\2018.11.21 - EC comparison to High Throughput\
	Host : 172.16.1.30
Device : SP-50 (SN 0301030103010301)
Address : USB
EC-Lab for windows v11.02 (software)
Internet server v11.02 (firmware)
Command interpretor v11.02 (firmware)
Electrode material : Au/Pd
Initial state :
Electrolyte : NaCl (0.2M)
Comments : Fe(CN)63-/Fe(CN)64- 5.10-3 M
Reference electrode : SCE Saturated Calomel Electrode (0.241 V)
Electrode surface area : 0.001 cm²
Characteristic mass : 0.001 g
Equivalent Weight : 0.000 g/eq.
Density : 0.000 g/cm3
Cycle Definition : Charge/Discharge alternance
Ei (V)              -0.100
vs.                 Ref
dE/dt               50.000
dE/dt unit          mV/s
E1 (V)              0.300
vs.                 Ref
Step percent        50
N                   10
E range min (V)     -1.000
E range max (V)     1.000
I Range             Auto
I Range min         Unset
I Range max         Unset
I Range init        Unset
Bandwidth           5
E2 (V)              -0.200
vs.                 Ref
nc cycles           2
Reverse Scan        1
Ef (V)              0.000
vs.                 Eoc

mode	ox/red	error	control changes	counter inc.	time/s	control/V	Ewe/V	<I>/mA	cycle number	(Q-Qo)/C	P/W
2	1	0	1	0	0.000000000000000E+000	-0.0984851	-0.0986212	-4.63474e-05	1	0.0000000E+000	4.57084e-09
2	1	0	1	0	0.4865	-0.0741592	-0.0744409	4.52498e-05	1	1.84322e-08	-3.36844e-09
2	1	0	1	0	0.9465	-0.0511582	-0.0513874	5.53625e-05	1	4.30884e-08	-2.84493e-09
2	1	0	1	0	1.4065	-0.0281573	-0.0283912	6.80346e-05	1	7.27311e-08	-1.93158e-09
2	1	0	1	0	1.8665	-0.00515635	-0.00545325	0.000104839	1	1.12306e-07	-5.71714e-10
2	1	0	1	0	2.3265	0.0178446	0.0176257	0.00023403	1	1.85272e-07	4.12493e-09
2	1	0	1	0	2.7865	0.0408455	0.0405837	0.000624267	1	3.70283e-07	2.53351e-08
2	1	0	1	0	3.2465	0.0638464	0.0636711	0.00127655	1	8.06596e-07	8.12792e-08
2	1	0	1	0	3.7065	0.0868473	0.0866143	0.00163465	1	1.4984e-06	1.41584e-07
2	1	0	1	0	4.1665	0.109848	0.109671	0.00153837	1	2.23984e-06	1.68715e-07
2	1	0	1	0	4.6265	0.132849	0.132636	0.00133939	1	2.90237e-06	1.77652e-07
2	1	0	0	0	5.0867	0.15585	0.155654	0.00117999	1	3.48046e-06	1.8367e-07
2	1	0	0	0	5.5467	0.178851	0.178682	0.00106729	1	3.99661e-06	1.90705e-07
2	1	0	0	0	6.0067	0.201852	0.201642	0.000991128	1	4.47018e-06	1.99853e-07
2	1	0	0	0	6.4667	0.224853	0.224634	0.000938954	1	4.91465e-06	2.10921e-07
2	1	0	0	0	6.9267	0.247854	0.247669	0.000901805	1	5.33907e-06	2.23349e-07
2	1	0	0	0	7.3867	0.270855	0.270712	0.000878886	1	5.74973e-06	2.37925e-07
2	1	0	0	0	7.8467	0.293856	0.293692	0.000865202	1	6.15169e-06	2.54103e-07
2	0	0	1	0	8.2953	0.283705	0.28352	0.000647181	1	6.48618e-06	1.83489e-07
2	0	0	1	0	8.7553	0.260704	0.260472	0.000569804	1	6.76252e-06	1.48418e-07
2	0	0	1	0	9.2153	0.237703	0.237483	0.000522728	1	7.01265e-06	1.24139e-07
2	0	0	1	0	9.6753	0.214702	0.214514	0.000487071	1	7.24334e-06	1.04483e-07
2	0	0	1	0	10.1353	0.191702	0.191497	0.000452448	1	7.45772e-06	8.66426e-08
2	0	0	1	0	10.5953	0.168701	0.168508	0.00041614	1	7.65649e-06	7.01231e-08
2	0	0	0	0	11.0555	0.1457	0.14551	0.000374988	1	7.83812e-06	5.45646e-08
2	0	0	0	0	11.5155	0.122699	0.122465	0.000313938	1	7.99704e-06	3.84465e-08
2	0	0	0	0	11.9755	0.0996979	0.0995124	0.000192064	1	8.11643e-06	1.91127e-08
2	0	0	0	0	12.4355	0.0766969	0.0765098	-0.000100441	1	8.14651e-06	-7.6847e-09
2	0	0	0	0	12.8955	0.053696	0.053503	-0.000690067	1	7.97415e-06	-3.69207e-08
2	0	0	0	0	13.3555	0.0306951	0.0304305	-0.00121145	1	7.51793e-06	-3.68649e-08
2	0	0	0	0	13.8155	0.00769417	0.00749997	-0.00116872	1	6.95082e-06	-8.76539e-09
2	0	0	0	0	14.2755	-0.0153068	-0.0155175	-0.000908535	1	6.47247e-06	1.40982e-08
2	0	0	0	0	14.7355	-0.0383077	-0.0385031	-0.000713587	1	6.10151e-06	2.74753e-08
2	0	0	0	0	15.1955	-0.0613086	-0.0615258	-0.000592806	1	5.8021e-06	3.64729e-08
2	0	0	0	0	15.6555	-0.0843096	-0.084556	-0.000511181	1	5.54834e-06	4.32234e-08
2	0	0	1	0	16.1157	-0.107311	-0.107493	-0.000447313	1	5.32592e-06	4.8083e-08
2	0	0	1	0	16.5757	-0.130311	-0.130559	-0.000415834	1	5.12642e-06	5.42909e-08
2	0	0	1	0	17.0357	-0.153312	-0.153537	-0.000383416	1	4.94201e-06	5.88686e-08
2	0	0	1	0	17.4957	-0.176313	-0.176584	-0.000361549	1	4.77004e-06	6.3844e-08
2	0	0	1	0	17.9557	-0.199314	-0.199514	-0.000344931	1	4.60694e-06	6.88185e-08
2	1	0	0	1	18.4051	-0.178213	-0.17841	-0.000179452	1	4.51313e-06	3.20159e-08
2	1	0	0	1	18.8651	-0.155212	-0.15547	-0.000145228	1	4.4405e-06	2.25785e-08
2	1	0	0	1	19.3251	-0.132212	-0.13238	-0.000120588	1	4.38115e-06	1.59635e-08
2	1	0	0	1	19.7851	-0.109211	-0.109358	-0.000100405	1	4.33188e-06	1.09801e-08
2	1	0	1	1	20.2453	-0.0862097	-0.0864048	-8.51685e-05	2	4.29075e-06	7.35897e-09
2	1	0	1	1	20.7053	-0.0632087	-0.0633768	-6.8764e-05	2	4.25671e-06	4.35804e-09
2	1	0	1	1	21.1653	-0.0402078	-0.0403912	-5.32285e-05	2	4.22969e-06	2.14996e-09
2	1	0	1	1	21.6253	-0.0172068	-0.0174363	-2.44733e-05	2	4.21223e-06	4.26724e-10
2	1	0	1	1	22.0853	0.00579409	0.00562355	4.92154e-05	2	4.21597e-06	2.76765e-10
2	1	0	1	1	22.5453	0.028795	0.0285986	0.000274397	2	4.28301e-06	7.84737e-09
2	1	0	1	1	23.0053	0.0517959	0.0516732	0.000786373	2	4.51717e-06	4.06344e-08
2	1	0	1	1	23.4653	0.0747969	0.0746334	0.00134078	2	5.01681e-06	1.00067e-07
2	1	0	1	1	23.9253	0.0977978	0.0976487	0.00148189	2	5.68573e-06	1.44705e-07
2	1	0	1	1	24.3853	0.120799	0.120626	0.00132427	2	6.33687e-06	1.59741e-07
2	1	0	1	1	24.8453	0.1438	0.143616	0.00113869	2	6.9033e-06	1.63534e-07
2	1	0	0	1	25.3055	0.166801	0.166602	0.00100184	2	7.39557e-06	1.66909e-07
2	1	0	0	1	25.7655	0.189801	0.189625	0.000904372	2	7.83417e-06	1.71492e-07
2	1	0	0	1	26.2255	0.212802	0.212656	0.0008381	2	8.23547e-06	1.78227e-07
2	1	0	0	1	26.6855	0.235803	0.235642	0.000791024	2	8.61064e-06	1.86398e-07
2	1	0	0	1	27.1455	0.258804	0.258654	0.000757346	2	8.96736e-06	1.95891e-07
2	1	0	0	1	27.6055	0.281805	0.281627	0.000739002	2	9.31231e-06	2.08123e-07
2	0	0	0	1	28.0551	0.295706	0.295527	0.000607485	2	9.63448e-06	1.79528e-07
2	0	0	0	1	28.5151	0.272705	0.272496	0.000518185	2	9.88918e-06	1.41203e-07
2	0	0	0	1	28.9751	0.249704	0.249486	0.000473142	2	1.01154e-05	1.18042e-07
2	0	0	0	1	29.4351	0.226703	0.226473	0.000437319	2	1.03232e-05	9.90409e-08
2	0	0	0	1	29.8951	0.203702	0.203482	0.00040472	2	1.05162e-05	8.23533e-08
2	0	0	0	1	30.3551	0.180701	0.18049	0.000378376	2	1.06956e-05	6.82931e-08
2	0	0	0	1	30.8151	0.1577	0.157549	0.000343333	2	1.08606e-05	5.40917e-08
2	0	0	1	1	31.2753	0.134699	0.134433	0.000300301	2	1.10083e-05	4.03704e-08
2	0	0	1	1	31.7353	0.111698	0.111505	0.000223946	2	1.11299e-05	2.49709e-08
2	0	0	1	1	32.1953	0.0886974	0.0884903	4.98548e-05	2	1.11982e-05	4.41167e-09
2	0	0	1	1	32.6553	0.0656965	0.0654972	-0.00035444	2	1.11389e-05	-2.32148e-08
2	0	0	1	1	33.1153	0.0426956	0.042483	-0.000988809	2	1.08292e-05	-4.20076e-08
2	0	0	1	1	33.5753	0.0196946	0.0194306	-0.00128147	2	1.02822e-05	-2.48997e-08
[...]
2	1	0	1	0	39.5449	-0.121211	-0.121395	-0.00013741	2	7.16457e-06	1.66809e-08
2	1	0	0	0	40.0051	-0.0982101	-0.0984627	-0.000117322	3	7.10733e-06	1.15519e-08
2	1	0	0	0	40.4651	-0.0752092	-0.0754166	-0.000102979	3	7.05809e-06	7.76633e-09
2	1	0	0	0	40.9251	-0.0522083	-0.0524734	-8.36706e-05	3	7.01617e-06	4.39048e-09
2	1	0	0	0	41.3851	-0.0292073	-0.0293786	-6.49927e-05	3	6.98256e-06	1.90939e-09
2	1	0	0	0	41.8451	-0.0062064	-0.00642582	-2.13945e-05	3	6.9629e-06	1.37477e-10
2	1	0	0	0	42.3051	0.0167945	0.0166245	0.000109324	3	6.97926e-06	1.81745e-09
2	1	0	0	0	42.7651	0.0397955	0.039661	0.000449571	3	7.09798e-06	1.78304e-08
2	1	0	0	0	43.2251	0.0627964	0.0626434	0.00102267	3	7.43463e-06	6.40632e-08
2	1	0	0	0	43.6851	0.0857973	0.0855951	0.00141551	3	8.01351e-06	1.21161e-07
2	1	0	0	0	44.1451	0.108798	0.108604	0.00138753	3	8.6718e-06	1.50691e-07
2	1	0	0	0	44.6051	0.131799	0.131635	0.00120622	3	9.27086e-06	1.58781e-07
2	1	0	1	0	45.0653	0.1548	0.154636	0.00104321	3	9.7881e-06	1.61318e-07
2	1	0	1	0	45.5253	0.177801	0.177621	0.00092577	3	1.02411e-05	1.64436e-07
2	1	0	1	0	45.9853	0.200802	0.200673	0.000843611	3	1.06484e-05	1.6929e-07
2	1	0	1	0	46.4453	0.223803	0.223603	0.000783764	3	1.10237e-05	1.75252e-07
2	1	0	1	0	46.9053	0.246804	0.246651	0.000740586	3	1.13755e-05	1.82667e-07
2	1	0	1	0	47.3653	0.269805	0.269651	0.000711531	3	1.17105e-05	1.91865e-07
2	1	0	1	0	47.8253	0.292806	0.292593	0.000695123	3	1.20351e-05	2.03388e-07
2	0	0	1	0	48.2749	0.284705	0.284473	0.000523998	3	1.23052e-05	1.49063e-07
2	0	0	1	0	48.7349	0.261704	0.261498	0.000468335	3	1.25317e-05	1.22469e-07
2	0	0	1	0	49.1949	0.238703	0.238512	0.000430287	3	1.27377e-05	1.02628e-07
2	0	0	1	0	49.6549	0.215703	0.215504	0.00040283	3	1.29285e-05	8.68114e-08
2	0	0	1	0	50.1149	0.192702	0.192465	0.000371706	3	1.31056e-05	7.15405e-08
2	0	0	1	0	50.5749	0.169701	0.169502	0.000342418	3	1.32695e-05	5.80404e-08
2	0	0	0	0	51.0351	0.1467	0.146492	0.000308309	3	1.34183e-05	4.51647e-08
2	0	0	0	0	51.4951	0.123699	0.123511	0.000252936	3	1.35471e-05	3.12404e-08
2	0	0	0	0	51.9551	0.100698	0.100508	0.000146659	3	1.36414e-05	1.47403e-08
2	0	0	0	0	52.4151	0.077697	0.0775148	-0.000109433	3	1.36574e-05	-8.48272e-09
2	0	0	0	0	52.8751	0.0546961	0.0544847	-0.000642675	3	1.34939e-05	-3.50159e-08
2	0	0	0	0	53.3351	0.0316951	0.031445	-0.0011939	3	1.30576e-05	-3.75422e-08
2	0	0	0	0	53.7951	0.00869421	0.00844348	-0.00122959	3	1.24786e-05	-1.0382e-08
2	0	0	0	0	54.2551	-0.0143067	-0.0145156	-0.000987486	3	1.19663e-05	1.4334e-08
2	0	0	0	0	54.7151	-0.0373077	-0.0375564	-0.000785947	3	1.15607e-05	2.95173e-08
2	0	0	0	0	55.1751	-0.0603086	-0.0605526	-0.000660017	3	1.12295e-05	3.99658e-08
2	0	0	0	0	55.6351	-0.0833095	-0.0834768	-0.000572828	3	1.09466e-05	4.78178e-08
2	0	0	1	0	56.0953	-0.10631	-0.106568	-0.000512322	3	1.06964e-05	5.45973e-08
2	0	0	1	0	56.5553	-0.129311	-0.129559	-0.00046931	3	1.047e-05	6.08035e-08
2	0	0	1	0	57.0153	-0.152312	-0.152512	-0.000433793	3	1.02618e-05	6.61587e-08
2	0	0	1	0	57.4753	-0.175313	-0.175574	-0.000409537	3	1.00677e-05	7.19041e-08
2	0	0	1	0	57.9353	-0.198314	-0.198552	-0.000387139	3	9.88389e-06	7.68673e-08
2	1	0	0	1	58.3847	-0.179213	-0.179439	-0.000219045	3	9.76886e-06	3.93053e-08
2	1	0	0	1	58.8447	-0.156213	-0.156431	-0.000185286	3	9.67758e-06	2.89845e-08
2	1	0	0	1	59.3047	-0.133212	-0.133396	-0.000157615	3	9.60037e-06	2.10253e-08
2	1	0	0	1	59.7647	-0.110211	-0.110385	-0.000136396	3	9.53413e-06	1.5056e-08
2	1	0	1	1	60.2249	-0.0872097	-0.0874363	-0.000120385	3	9.47677e-06	1.0526e-08
2	1	0	1	1	60.6829	-0.0643088	-0.0644982	-0.000102761	3	9.42728e-06	6.6279e-09
2	1	0	0	1	60.6866	-0.0640837	-0.064315	-0.000104027	3	9.42691e-06	6.69046e-09